,condition,correct,correct_response,frequency,i_acquisition_trial,i_block,internal_node_id,key_press,rt,stage,stimulus,subject,time_elapsed,trial_index,trial_type,valence,distance,i_generalization_trial,tone,positive_key,negative_key,association
0,instrumental,1.0,q,300,0.0,0.0,0.0-1.0-1.0,81.0,572.0,acquisition,sound/300,0.0,58233.0,2.0,audio-keyboard-response,positive,,,,81.0,80.0,
1,instrumental,0.0,,500,1.0,0.0,0.0-1.0-1.1,81.0,334.0,acquisition,sound/500,0.0,61173.0,5.0,audio-keyboard-response,neutral,,,,81.0,80.0,
2,instrumental,0.0,p,700,2.0,0.0,0.0-1.0-1.2,81.0,424.0,acquisition,sound/700,0.0,64201.0,8.0,audio-keyboard-response,negative,,,,81.0,80.0,
3,instrumental,1.0,q,300,3.0,0.0,0.0-1.0-1.3,81.0,735.0,acquisition,sound/300,0.0,67542.0,11.0,audio-keyboard-response,positive,,,,81.0,80.0,
4,instrumental,0.0,,500,4.0,0.0,0.0-1.0-1.4,80.0,438.0,acquisition,sound/500,0.0,70586.0,14.0,audio-keyboard-response,neutral,,,,81.0,80.0,
5,instrumental,0.0,p,700,5.0,0.0,0.0-1.0-1.5,81.0,1310.0,acquisition,sound/700,0.0,74502.0,17.0,audio-keyboard-response,negative,,,,81.0,80.0,
6,instrumental,0.0,q,300,6.0,0.0,0.0-1.0-1.6,80.0,568.0,acquisition,sound/300,0.0,77677.0,20.0,audio-keyboard-response,positive,,,,81.0,80.0,
7,instrumental,0.0,,500,7.0,0.0,0.0-1.0-1.7,80.0,476.0,acquisition,sound/500,0.0,80759.0,23.0,audio-keyboard-response,neutral,,,,81.0,80.0,
8,pavlovian,1.0,,300,,0.0,0.0-1.0-1.8,,,acquisition,sound/300,0.0,85867.0,26.0,audio-keyboard-response,positive,,,,81.0,80.0,
9,instrumental,1.0,p,700,8.0,0.0,0.0-1.0-1.9,80,792,acquisition,sound/700,0.0,89265.0,29.0,audio-keyboard-response,negative,,,,81.0,80.0,
10,pavlovian,0.0,,700,,0.0,0.0-1.0-1.10,,,acquisition,sound/700,0.0,94372.0,32.0,audio-keyboard-response,negative,,,,81.0,80.0,
11,pavlovian,0.0,,700,,0.0,0.0-1.0-1.11,81,837,acquisition,sound/700,0.0,99481.0,35.0,audio-keyboard-response,negative,,,,81.0,80.0,
12,instrumental,1.0,q,300,9.0,0.0,0.0-1.0-1.12,81,520,acquisition,sound/300,0.0,102608.0,38.0,audio-keyboard-response,positive,,,,81.0,80.0,
13,instrumental,1.0,p,700,10.0,0.0,0.0-1.0-1.13,80,489,acquisition,sound/700,0.0,105704.0,41.0,audio-keyboard-response,negative,,,,81.0,80.0,
14,instrumental,1.0,p,700,11.0,0.0,0.0-1.0-1.14,80,622,acquisition,sound/700,0.0,108930.0,44.0,audio-keyboard-response,negative,,,,81.0,80.0,
15,instrumental,0.0,p,700,12.0,0.0,0.0-1.0-1.15,81,468,acquisition,sound/700,0.0,112006.0,47.0,audio-keyboard-response,negative,,,,81.0,80.0,
16,instrumental,1.0,q,300,13.0,0.0,0.0-1.0-1.16,81,531,acquisition,sound/300,0.0,115142.0,50.0,audio-keyboard-response,positive,,,,81.0,80.0,
17,instrumental,1.0,q,300,14.0,0.0,0.0-1.0-1.17,81,478,acquisition,sound/300,0.0,118226.0,53.0,audio-keyboard-response,positive,,,,81.0,80.0,
18,instrumental,0.0,,500,15.0,0.0,0.0-1.0-1.18,80,789,acquisition,sound/500,0.0,121633.0,56.0,audio-keyboard-response,neutral,,,,81.0,80.0,
19,pavlovian,1.0,,300,,0.0,0.0-1.0-1.19,,,acquisition,sound/300,0.0,126741.0,59.0,audio-keyboard-response,positive,,,,81.0,80.0,
20,instrumental,0.0,,500,16.0,0.0,0.0-1.0-1.20,80,654,acquisition,sound/500,0.0,130001.0,62.0,audio-keyboard-response,neutral,,,,81.0,80.0,
21,instrumental,0.0,,500,17.0,0.0,0.0-1.0-1.21,80,491,acquisition,sound/500,0.0,133095.0,65.0,audio-keyboard-response,neutral,,,,81.0,80.0,
22,instrumental,0.0,,500,18.0,0.0,0.0-1.0-1.22,81,721,acquisition,sound/500,0.0,136423.0,68.0,audio-keyboard-response,neutral,,,,81.0,80.0,
23,instrumental,0.0,,500,19.0,0.0,0.0-1.0-1.23,80,451,acquisition,sound/500,0.0,139483.0,71.0,audio-keyboard-response,neutral,,,,81.0,80.0,
24,instrumental,1.0,p,700,20.0,0.0,0.0-1.0-1.24,80,575,acquisition,sound/700,0.0,142664.0,74.0,audio-keyboard-response,negative,,,,81.0,80.0,
25,instrumental,0.0,,500,21.0,0.0,0.0-1.0-1.25,80,718,acquisition,sound/500,0.0,145990.0,77.0,audio-keyboard-response,neutral,,,,81.0,80.0,
26,instrumental,1.0,p,700,22.0,0.0,0.0-1.0-1.26,80,476,acquisition,sound/700,0.0,149070.0,80.0,audio-keyboard-response,negative,,,,81.0,80.0,
27,instrumental,1.0,q,300,23.0,0.0,0.0-1.0-1.27,81,464,acquisition,sound/300,0.0,152139.0,83.0,audio-keyboard-response,positive,,,,81.0,80.0,
28,instrumental,0.0,q,300,24.0,0.0,0.0-1.0-1.28,80,411,acquisition,sound/300,0.0,155156.0,86.0,audio-keyboard-response,positive,,,,81.0,80.0,
29,instrumental,1.0,p,700,25.0,0.0,0.0-1.0-1.29,80,503,acquisition,sound/700,0.0,158264.0,89.0,audio-keyboard-response,negative,,,,81.0,80.0,
30,pavlovian,1.0,,300,,0.0,0.0-1.0-1.30,,,acquisition,sound/300,0.0,163367.0,92.0,audio-keyboard-response,positive,,,,81.0,80.0,
31,pavlovian,0.0,,700,,0.0,0.0-1.0-1.31,,,acquisition,sound/700,0.0,168475.0,95.0,audio-keyboard-response,negative,,,,81.0,80.0,
32,instrumental,1.0,q,300,26.0,0.0,0.0-1.0-1.32,81,549,acquisition,sound/300,0.0,171626.0,98.0,audio-keyboard-response,positive,,,,81.0,80.0,
33,,0.0,space,,,0.0,0.0-4.0-1.0,80,642,generalization,sound/320,0.0,205252.0,103.0,audio-keyboard-response,positive,20.0,0.0,320.0,81.0,80.0,
34,,0.0,space,,,0.0,0.0-4.0-1.1,80,553,generalization,sound/695,0.0,207312.0,106.0,audio-keyboard-response,negative,-5.0,1.0,695.0,81.0,80.0,
35,,1.0,p,,,0.0,0.0-4.0-1.2,80,436,generalization,sound/700,0.0,209252.0,109.0,audio-keyboard-response,negative,0.0,2.0,,81.0,80.0,
36,,1.0,q,,,0.0,0.0-4.0-1.3,81,381,generalization,sound/300,0.0,211137.0,112.0,audio-keyboard-response,positive,0.0,3.0,,81.0,80.0,
37,,1.0,space,,,0.0,0.0-4.0-1.4,32,955,generalization,sound/480,0.0,213597.0,115.0,audio-keyboard-response,control,,4.0,,81.0,80.0,
38,,1.0,space,,,0.0,0.0-4.0-1.5,32,854,generalization,sound/680,0.0,215954.0,118.0,audio-keyboard-response,negative,-20,5.0,680.0,81.0,80.0,
39,,0.0,space,,,0.0,0.0-4.0-1.6,81,572,generalization,sound/360,0.0,218031.0,121.0,audio-keyboard-response,positive,60,6.0,360.0,81.0,80.0,
40,,0.0,space,,,0.0,0.0-4.0-1.7,80,494,generalization,sound/760,0.0,220031.0,124.0,audio-keyboard-response,negative,60,7.0,760.0,81.0,80.0,
41,,0.0,p,,,0.0,0.0-4.0-1.8,32,794,generalization,sound/700,0.0,222327.0,127.0,audio-keyboard-response,negative,0,8.0,,81.0,80.0,
42,,0.0,space,,,0.0,0.0-4.0-1.9,81,648,generalization,sound/600,0.0,224478.0,130.0,audio-keyboard-response,negative,-100,9.0,600.0,81.0,80.0,
43,,0.0,space,,,0.0,0.0-4.0-1.10,80,724,generalization,sound/705,0.0,226706.0,133.0,audio-keyboard-response,negative,5,10.0,705.0,81.0,80.0,
44,,0.0,space,,,0.0,0.0-4.0-1.11,80,459,generalization,sound/720,0.0,228667.0,136.0,audio-keyboard-response,negative,20,11.0,720.0,81.0,80.0,
45,,0.0,space,,,0.0,0.0-4.0-1.12,81,396,generalization,sound/280,0.0,230566.0,139.0,audio-keyboard-response,positive,-20,12.0,280.0,81.0,80.0,
46,,1.0,space,,,0.0,0.0-4.0-1.13,32,649,generalization,sound/400,0.0,232719.0,142.0,audio-keyboard-response,positive,100,13.0,400.0,81.0,80.0,
47,,0.0,space,,,0.0,0.0-4.0-1.14,80,541,generalization,sound/900,0.0,234764.0,145.0,audio-keyboard-response,control,,14.0,,81.0,80.0,
48,,1.0,q,,,0.0,0.0-4.0-1.15,81,592,generalization,sound/300,0.0,236860.0,148.0,audio-keyboard-response,positive,0,15.0,,81.0,80.0,
49,,1.0,space,,,0.0,0.0-4.0-1.16,32,534,generalization,sound/500,0.0,238897.0,151.0,audio-keyboard-response,control,,16.0,,81.0,80.0,
50,,1.0,q,,,0.0,0.0-4.0-1.17,81,474,generalization,sound/300,0.0,240874.0,154.0,audio-keyboard-response,positive,0,17.0,,81.0,80.0,
51,,0.0,space,,,0.0,0.0-4.0-1.18,81,627,generalization,sound/240,0.0,243004.0,157.0,audio-keyboard-response,positive,-60,18.0,240.0,81.0,80.0,
52,,1.0,space,,,0.0,0.0-4.0-1.19,32,639,generalization,sound/520,0.0,245147.0,160.0,audio-keyboard-response,control,,19.0,,81.0,80.0,
53,,1.0,p,,,0.0,0.0-4.0-1.20,80,404,generalization,sound/700,0.0,247055.0,163.0,audio-keyboard-response,negative,0,20.0,,81.0,80.0,
54,,0.0,space,,,0.0,0.0-4.0-1.21,81,609,generalization,sound/295,0.0,249167.0,166.0,audio-keyboard-response,positive,-5,21.0,295.0,81.0,80.0,
55,,1.0,q,,,0.0,0.0-4.0-1.22,81,497,generalization,sound/300,0.0,251169.0,169.0,audio-keyboard-response,positive,0,22.0,,81.0,80.0,
56,,0.0,space,,,0.0,0.0-4.0-1.23,80,501,generalization,sound/920,0.0,253175.0,172.0,audio-keyboard-response,control,,23.0,,81.0,80.0,
57,,0.0,space,,,0.0,0.0-4.0-1.24,80,605,generalization,sound/880,0.0,255284.0,175.0,audio-keyboard-response,control,,24.0,,81.0,80.0,
58,,0.0,space,,,0.0,0.0-4.0-1.25,81,511,generalization,sound/305,0.0,257297.0,178.0,audio-keyboard-response,positive,5,25.0,305.0,81.0,80.0,
59,,0.0,space,,,0.0,0.0-4.0-1.26,80,544,generalization,sound/640,0.0,259344.0,181.0,audio-keyboard-response,negative,-60,26.0,640.0,81.0,80.0,
60,,0.0,space,,,0.0,0.0-4.0-1.27,80,452,generalization,sound/800,0.0,261299.0,184.0,audio-keyboard-response,negative,100,27.0,800.0,81.0,80.0,
61,,0.0,space,,,0.0,0.0-4.0-1.28,81,386,generalization,sound/200,0.0,263191.0,187.0,audio-keyboard-response,positive,-100,28.0,200.0,81.0,80.0,
62,,1.0,p,,,0.0,0.0-4.0-1.29,80,444,generalization,sound/700,0.0,265141.0,190.0,audio-keyboard-response,negative,0,29.0,,81.0,80.0,
63,instrumental,1.0,q,300,27.0,1.0,0.0-7.0-1.0,81,475,acquisition,sound/300,0.0,273526.0,195.0,audio-keyboard-response,positive,,,,81.0,80.0,
64,instrumental,1.0,p,700,28.0,1.0,0.0-7.0-1.1,80,477,acquisition,sound/700,0.0,276606.0,198.0,audio-keyboard-response,negative,,,,81.0,80.0,
65,instrumental,1.0,,500,29.0,1.0,0.0-7.0-1.2,,,acquisition,sound/500,0.0,281713.0,201.0,audio-keyboard-response,neutral,,,,81.0,80.0,
66,pavlovian,1.0,,300,,1.0,0.0-7.0-1.3,,,acquisition,sound/300,0.0,286820.0,204.0,audio-keyboard-response,positive,,,,81.0,80.0,
67,instrumental,0.0,,500,30.0,1.0,0.0-7.0-1.4,81,623,acquisition,sound/500,0.0,290045.0,207.0,audio-keyboard-response,neutral,,,,81.0,80.0,
68,instrumental,1.0,q,300,31.0,1.0,0.0-7.0-1.5,81,465,acquisition,sound/300,0.0,293117.0,210.0,audio-keyboard-response,positive,,,,81.0,80.0,
69,instrumental,1.0,q,300,32.0,1.0,0.0-7.0-1.6,81,472,acquisition,sound/300,0.0,296196.0,213.0,audio-keyboard-response,positive,,,,81.0,80.0,
70,instrumental,1.0,p,700,33.0,1.0,0.0-7.0-1.7,80,601,acquisition,sound/700,0.0,299405.0,216.0,audio-keyboard-response,negative,,,,81.0,80.0,
71,instrumental,1.0,p,700,34.0,1.0,0.0-7.0-1.8,80,499,acquisition,sound/700,0.0,302511.0,219.0,audio-keyboard-response,negative,,,,81.0,80.0,
72,instrumental,0.0,,500,35.0,1.0,0.0-7.0-1.9,80,1044,acquisition,sound/500,0.0,306162.0,222.0,audio-keyboard-response,neutral,,,,81.0,80.0,
73,pavlovian,0.0,,700,,1.0,0.0-7.0-1.10,,,acquisition,sound/700,0.0,311267.0,225.0,audio-keyboard-response,negative,,,,81.0,80.0,
74,instrumental,1.0,q,300,36.0,1.0,0.0-7.0-1.11,81,491,acquisition,sound/300,0.0,314364.0,228.0,audio-keyboard-response,positive,,,,81.0,80.0,
75,instrumental,1.0,q,300,37.0,1.0,0.0-7.0-1.12,81,415,acquisition,sound/300,0.0,317383.0,231.0,audio-keyboard-response,positive,,,,81.0,80.0,
76,instrumental,0.0,,500,38.0,1.0,0.0-7.0-1.13,80,1236,acquisition,sound/500,0.0,321224.0,234.0,audio-keyboard-response,neutral,,,,81.0,80.0,
77,pavlovian,0.0,,700,,1.0,0.0-7.0-1.14,,,acquisition,sound/700,0.0,326332.0,237.0,audio-keyboard-response,negative,,,,81.0,80.0,
78,instrumental,1.0,p,700,39.0,1.0,0.0-7.0-1.15,80,586,acquisition,sound/700,0.0,329521.0,240.0,audio-keyboard-response,negative,,,,81.0,80.0,
79,instrumental,1.0,p,700,40.0,1.0,0.0-7.0-1.16,80,468,acquisition,sound/700,0.0,332599.0,243.0,audio-keyboard-response,negative,,,,81.0,80.0,
80,instrumental,1.0,p,700,41.0,1.0,0.0-7.0-1.17,80,454,acquisition,sound/700,0.0,335656.0,246.0,audio-keyboard-response,negative,,,,81.0,80.0,
81,instrumental,1.0,q,300,42.0,1.0,0.0-7.0-1.18,81,351,acquisition,sound/300,0.0,338623.0,249.0,audio-keyboard-response,positive,,,,81.0,80.0,
82,instrumental,0.0,,500,43.0,1.0,0.0-7.0-1.19,81,1186,acquisition,sound/500,0.0,342414.0,252.0,audio-keyboard-response,neutral,,,,81.0,80.0,
83,pavlovian,1.0,,300,,1.0,0.0-7.0-1.20,,,acquisition,sound/300,0.0,347529.0,255.0,audio-keyboard-response,positive,,,,81.0,80.0,
84,instrumental,0.0,,500,44.0,1.0,0.0-7.0-1.21,81,492,acquisition,sound/500,0.0,350628.0,258.0,audio-keyboard-response,neutral,,,,81.0,80.0,
85,instrumental,0.0,,500,45.0,1.0,0.0-7.0-1.22,81,583,acquisition,sound/500,0.0,353816.0,261.0,audio-keyboard-response,neutral,,,,81.0,80.0,
86,instrumental,1.0,q,300,46.0,1.0,0.0-7.0-1.23,81,388,acquisition,sound/300,0.0,356809.0,264.0,audio-keyboard-response,positive,,,,81.0,80.0,
87,instrumental,1.0,q,300,47.0,1.0,0.0-7.0-1.24,81,386,acquisition,sound/300,0.0,359799.0,267.0,audio-keyboard-response,positive,,,,81.0,80.0,
88,instrumental,0.0,,500,48.0,1.0,0.0-7.0-1.25,81,807,acquisition,sound/500,0.0,363210.0,270.0,audio-keyboard-response,neutral,,,,81.0,80.0,
89,instrumental,1.0,p,700,49.0,1.0,0.0-7.0-1.26,80,423,acquisition,sound/700,0.0,366240.0,273.0,audio-keyboard-response,negative,,,,81.0,80.0,
90,instrumental,1.0,p,700,50.0,1.0,0.0-7.0-1.27,80,370,acquisition,sound/700,0.0,369215.0,276.0,audio-keyboard-response,negative,,,,81.0,80.0,
91,instrumental,1.0,q,300,51.0,1.0,0.0-7.0-1.28,81,376,acquisition,sound/300,0.0,372196.0,279.0,audio-keyboard-response,positive,,,,81.0,80.0,
92,pavlovian,0.0,,700,,1.0,0.0-7.0-1.29,,,acquisition,sound/700,0.0,377304.0,282.0,audio-keyboard-response,negative,,,,81.0,80.0,
93,instrumental,1.0,p,700,52.0,1.0,0.0-7.0-1.30,80,525,acquisition,sound/700,0.0,380435.0,285.0,audio-keyboard-response,negative,,,,81.0,80.0,
94,pavlovian,1.0,,300,,1.0,0.0-7.0-1.31,,,acquisition,sound/300,0.0,385543.0,288.0,audio-keyboard-response,positive,,,,81.0,80.0,
95,instrumental,0.0,,500,53.0,1.0,0.0-7.0-1.32,80,775,acquisition,sound/500,0.0,388922.0,291.0,audio-keyboard-response,neutral,,,,81.0,80.0,
96,,0.0,space,,,1.0,0.0-10.0-1.0,81,1381,generalization,sound/320,0.0,400629.0,296.0,audio-keyboard-response,positive,20,30.0,320.0,81.0,80.0,
97,,1.0,q,,,1.0,0.0-10.0-1.1,81,568,generalization,sound/300,0.0,402700.0,299.0,audio-keyboard-response,positive,0,31.0,,81.0,80.0,
98,,0.0,space,,,1.0,0.0-10.0-1.2,80,478,generalization,sound/720,0.0,404683.0,302.0,audio-keyboard-response,negative,20,32.0,720.0,81.0,80.0,
99,,1.0,space,,,1.0,0.0-10.0-1.3,32,688,generalization,sound/695,0.0,406877.0,305.0,audio-keyboard-response,negative,-5,33.0,695.0,81.0,80.0,
100,,0.0,space,,,1.0,0.0-10.0-1.4,81,689,generalization,sound/480,0.0,409069.0,308.0,audio-keyboard-response,control,,34.0,,81.0,80.0,
101,,1.0,q,,,1.0,0.0-10.0-1.5,81,362,generalization,sound/300,0.0,410936.0,311.0,audio-keyboard-response,positive,0,35.0,,81.0,80.0,
102,,1.0,space,,,1.0,0.0-10.0-1.6,32,798,generalization,sound/520,0.0,413237.0,314.0,audio-keyboard-response,control,,36.0,,81.0,80.0,
103,,0.0,space,,,1.0,0.0-10.0-1.7,81,505,generalization,sound/305,0.0,415247.0,317.0,audio-keyboard-response,positive,5,37.0,305.0,81.0,80.0,
104,,0.0,space,,,1.0,0.0-10.0-1.8,80,469,generalization,sound/900,0.0,417221.0,320.0,audio-keyboard-response,control,,38.0,,81.0,80.0,
105,,0.0,space,,,1.0,0.0-10.0-1.9,80,522,generalization,sound/800,0.0,419246.0,323.0,audio-keyboard-response,negative,100,39.0,800.0,81.0,80.0,
106,,0.0,space,,,1.0,0.0-10.0-1.10,80,491,generalization,sound/880,0.0,421243.0,326.0,audio-keyboard-response,control,,40.0,,81.0,80.0,
107,,0.0,space,,,1.0,0.0-10.0-1.11,81,400,generalization,sound/280,0.0,423147.0,329.0,audio-keyboard-response,positive,-20,41.0,280.0,81.0,80.0,
108,,0.0,space,,,1.0,0.0-10.0-1.12,81,508,generalization,sound/295,0.0,425159.0,332.0,audio-keyboard-response,positive,-5,42.0,295.0,81.0,80.0,
109,,0.0,p,,,1.0,0.0-10.0-1.13,32,634,generalization,sound/700,0.0,427295.0,335.0,audio-keyboard-response,negative,0,43.0,,81.0,80.0,
110,,1.0,space,,,1.0,0.0-10.0-1.14,32,787,generalization,sound/500,0.0,429587.0,338.0,audio-keyboard-response,control,,44.0,,81.0,80.0,
111,,1.0,q,,,1.0,0.0-10.0-1.15,81,678,generalization,sound/300,0.0,431769.0,341.0,audio-keyboard-response,positive,0,45.0,,81.0,80.0,
112,,1.0,space,,,1.0,0.0-10.0-1.16,32,815,generalization,sound/360,0.0,434088.0,344.0,audio-keyboard-response,positive,60,46.0,360.0,81.0,80.0,
113,,1.0,p,,,1.0,0.0-10.0-1.17,80,779,generalization,sound/700,0.0,436371.0,347.0,audio-keyboard-response,negative,0,47.0,,81.0,80.0,
114,,0.0,space,,,1.0,0.0-10.0-1.18,81,532,generalization,sound/200,0.0,438406.0,350.0,audio-keyboard-response,positive,-100,48.0,200.0,81.0,80.0,
115,,1.0,space,,,1.0,0.0-10.0-1.19,32,521,generalization,sound/600,0.0,440432.0,353.0,audio-keyboard-response,negative,-100,49.0,600.0,81.0,80.0,
116,,0.0,space,,,1.0,0.0-10.0-1.20,80,569,generalization,sound/760,0.0,442508.0,356.0,audio-keyboard-response,negative,60,50.0,760.0,81.0,80.0,
117,,1.0,space,,,1.0,0.0-10.0-1.21,32,649,generalization,sound/680,0.0,444660.0,359.0,audio-keyboard-response,negative,-20,51.0,680.0,81.0,80.0,
118,,1.0,space,,,1.0,0.0-10.0-1.22,32,602,generalization,sound/705,0.0,446767.0,362.0,audio-keyboard-response,negative,5,52.0,705.0,81.0,80.0,
119,,0.0,p,,,1.0,0.0-10.0-1.23,32,439,generalization,sound/700,0.0,448707.0,365.0,audio-keyboard-response,negative,0,53.0,,81.0,80.0,
120,,0.0,space,,,1.0,0.0-10.0-1.24,80,617,generalization,sound/920,0.0,450827.0,368.0,audio-keyboard-response,control,,54.0,,81.0,80.0,
121,,0.0,space,,,1.0,0.0-10.0-1.25,81,396,generalization,sound/240,0.0,452728.0,371.0,audio-keyboard-response,positive,-60,55.0,240.0,81.0,80.0,
122,,0.0,p,,,1.0,0.0-10.0-1.26,32,632,generalization,sound/700,0.0,454864.0,374.0,audio-keyboard-response,negative,0,56.0,,81.0,80.0,
123,,1.0,q,,,1.0,0.0-10.0-1.27,81,933,generalization,sound/300,0.0,457301.0,377.0,audio-keyboard-response,positive,0,57.0,,81.0,80.0,
124,,1.0,space,,,1.0,0.0-10.0-1.28,32,617,generalization,sound/640,0.0,459422.0,380.0,audio-keyboard-response,negative,-60,58.0,640.0,81.0,80.0,
125,,0.0,space,,,1.0,0.0-10.0-1.29,81,636,generalization,sound/400,0.0,461564.0,383.0,audio-keyboard-response,positive,100,59.0,400.0,81.0,80.0,
126,instrumental,1.0,q,300,54.0,2.0,0.0-13.0-1.0,81,433,acquisition,sound/300,0.0,469180.0,388.0,audio-keyboard-response,positive,,,,81.0,80.0,
127,instrumental,0.0,,500,55.0,2.0,0.0-13.0-1.1,81,1077,acquisition,sound/500,0.0,472865.0,391.0,audio-keyboard-response,neutral,,,,81.0,80.0,
128,instrumental,1.0,p,700,56.0,2.0,0.0-13.0-1.2,80,454,acquisition,sound/700,0.0,475924.0,394.0,audio-keyboard-response,negative,,,,81.0,80.0,
129,instrumental,1.0,p,700,57.0,2.0,0.0-13.0-1.3,80,478,acquisition,sound/700,0.0,479011.0,397.0,audio-keyboard-response,negative,,,,81.0,80.0,
130,instrumental,0.0,,500,58.0,2.0,0.0-13.0-1.4,81,783,acquisition,sound/500,0.0,482400.0,400.0,audio-keyboard-response,neutral,,,,81.0,80.0,
131,instrumental,0.0,,500,59.0,2.0,0.0-13.0-1.5,81,568,acquisition,sound/500,0.0,485574.0,403.0,audio-keyboard-response,neutral,,,,81.0,80.0,
132,pavlovian,0.0,,700,,2.0,0.0-13.0-1.6,,,acquisition,sound/700,0.0,490682.0,406.0,audio-keyboard-response,negative,,,,81.0,80.0,
133,instrumental,1.0,q,300,60.0,2.0,0.0-13.0-1.7,81,375,acquisition,sound/300,0.0,493661.0,409.0,audio-keyboard-response,positive,,,,81.0,80.0,
134,pavlovian,1.0,,300,,2.0,0.0-13.0-1.8,,,acquisition,sound/300,0.0,498769.0,412.0,audio-keyboard-response,positive,,,,81.0,80.0,
135,instrumental,1.0,q,300,61.0,2.0,0.0-13.0-1.9,81,426,acquisition,sound/300,0.0,501799.0,415.0,audio-keyboard-response,positive,,,,81.0,80.0,
136,instrumental,1.0,p,700,62.0,2.0,0.0-13.0-1.10,80,372,acquisition,sound/700,0.0,504778.0,418.0,audio-keyboard-response,negative,,,,81.0,80.0,
137,instrumental,1.0,q,300,63.0,2.0,0.0-13.0-1.11,81,427,acquisition,sound/300,0.0,507809.0,421.0,audio-keyboard-response,positive,,,,81.0,80.0,
138,instrumental,0.0,,500,64.0,2.0,0.0-13.0-1.12,80,1306,acquisition,sound/500,0.0,511720.0,424.0,audio-keyboard-response,neutral,,,,81.0,80.0,
139,instrumental,1.0,p,700,65.0,2.0,0.0-13.0-1.13,80,579,acquisition,sound/700,0.0,514904.0,427.0,audio-keyboard-response,negative,,,,81.0,80.0,
140,instrumental,1.0,q,300,66.0,2.0,0.0-13.0-1.14,81,462,acquisition,sound/300,0.0,517972.0,430.0,audio-keyboard-response,positive,,,,81.0,80.0,
141,instrumental,1.0,q,300,67.0,2.0,0.0-13.0-1.15,81,358,acquisition,sound/300,0.0,520936.0,433.0,audio-keyboard-response,positive,,,,81.0,80.0,
142,instrumental,1.0,p,700,68.0,2.0,0.0-13.0-1.16,80,430,acquisition,sound/700,0.0,523971.0,436.0,audio-keyboard-response,negative,,,,81.0,80.0,
143,instrumental,0.0,,500,69.0,2.0,0.0-13.0-1.17,81,617,acquisition,sound/500,0.0,527190.0,439.0,audio-keyboard-response,neutral,,,,81.0,80.0,
144,pavlovian,0.0,,700,,2.0,0.0-13.0-1.18,,,acquisition,sound/700,0.0,532297.0,442.0,audio-keyboard-response,negative,,,,81.0,80.0,
145,pavlovian,1.0,,300,,2.0,0.0-13.0-1.19,,,acquisition,sound/300,0.0,537402.0,445.0,audio-keyboard-response,positive,,,,81.0,80.0,
146,instrumental,0.0,,500,70.0,2.0,0.0-13.0-1.20,81,655,acquisition,sound/500,0.0,540662.0,448.0,audio-keyboard-response,neutral,,,,81.0,80.0,
147,instrumental,1.0,p,700,71.0,2.0,0.0-13.0-1.21,80,417,acquisition,sound/700,0.0,543685.0,451.0,audio-keyboard-response,negative,,,,81.0,80.0,
148,instrumental,1.0,q,300,72.0,2.0,0.0-13.0-1.22,81,628,acquisition,sound/300,0.0,546920.0,454.0,audio-keyboard-response,positive,,,,81.0,80.0,
149,instrumental,0.0,,500,73.0,2.0,0.0-13.0-1.23,81,764,acquisition,sound/500,0.0,550292.0,457.0,audio-keyboard-response,neutral,,,,81.0,80.0,
150,pavlovian,1.0,,300,,2.0,0.0-13.0-1.24,,,acquisition,sound/300,0.0,555399.0,460.0,audio-keyboard-response,positive,,,,81.0,80.0,
151,instrumental,1.0,p,700,74.0,2.0,0.0-13.0-1.25,80,555,acquisition,sound/700,0.0,558562.0,463.0,audio-keyboard-response,negative,,,,81.0,80.0,
152,pavlovian,0.0,,700,,2.0,0.0-13.0-1.26,,,acquisition,sound/700,0.0,563668.0,466.0,audio-keyboard-response,negative,,,,81.0,80.0,
153,instrumental,1.0,p,700,75.0,2.0,0.0-13.0-1.27,80,523,acquisition,sound/700,0.0,566800.0,469.0,audio-keyboard-response,negative,,,,81.0,80.0,
154,instrumental,1.0,q,300,76.0,2.0,0.0-13.0-1.28,81,449,acquisition,sound/300,0.0,569856.0,472.0,audio-keyboard-response,positive,,,,81.0,80.0,
155,instrumental,0.0,,500,77.0,2.0,0.0-13.0-1.29,81,657,acquisition,sound/500,0.0,573118.0,475.0,audio-keyboard-response,neutral,,,,81.0,80.0,
156,instrumental,0.0,,500,78.0,2.0,0.0-13.0-1.30,81,646,acquisition,sound/500,0.0,576372.0,478.0,audio-keyboard-response,neutral,,,,81.0,80.0,
157,instrumental,1.0,p,700,79.0,2.0,0.0-13.0-1.31,80,434,acquisition,sound/700,0.0,579413.0,481.0,audio-keyboard-response,negative,,,,81.0,80.0,
158,instrumental,1.0,q,300,80.0,2.0,0.0-13.0-1.32,81,459,acquisition,sound/300,0.0,582476.0,484.0,audio-keyboard-response,positive,,,,81.0,80.0,
159,,1.0,q,,,2.0,0.0-16.0-1.0,81,578,generalization,sound/300,0.0,590835.0,489.0,audio-keyboard-response,positive,0,60.0,,81.0,80.0,
160,,1.0,p,,,2.0,0.0-16.0-1.1,80,564,generalization,sound/700,0.0,592904.0,492.0,audio-keyboard-response,negative,0,61.0,,81.0,80.0,
161,,1.0,space,,,2.0,0.0-16.0-1.2,32,489,generalization,sound/520,0.0,594899.0,495.0,audio-keyboard-response,control,,62.0,,81.0,80.0,
162,,0.0,space,,,2.0,0.0-16.0-1.3,80,780,generalization,sound/695,0.0,597183.0,498.0,audio-keyboard-response,negative,-5,63.0,695.0,81.0,80.0,
163,,0.0,space,,,2.0,0.0-16.0-1.4,81,361,generalization,sound/305,0.0,599049.0,501.0,audio-keyboard-response,positive,5,64.0,305.0,81.0,80.0,
164,,0.0,space,,,2.0,0.0-16.0-1.5,80,637,generalization,sound/720,0.0,601190.0,504.0,audio-keyboard-response,negative,20,65.0,720.0,81.0,80.0,
165,,0.0,space,,,2.0,0.0-16.0-1.6,80,440,generalization,sound/760,0.0,603134.0,507.0,audio-keyboard-response,negative,60,66.0,760.0,81.0,80.0,
166,,0.0,p,,,2.0,0.0-16.0-1.7,32,687,generalization,sound/700,0.0,605326.0,510.0,audio-keyboard-response,negative,0,67.0,,81.0,80.0,
167,,0.0,p,,,2.0,0.0-16.0-1.8,32,390,generalization,sound/700,0.0,607219.0,513.0,audio-keyboard-response,negative,0,68.0,,81.0,80.0,
168,,0.0,space,,,2.0,0.0-16.0-1.9,81,531,generalization,sound/500,0.0,609255.0,516.0,audio-keyboard-response,control,,69.0,,81.0,80.0,
169,,0.0,space,,,2.0,0.0-16.0-1.10,80,467,generalization,sound/900,0.0,611227.0,519.0,audio-keyboard-response,control,,70.0,,81.0,80.0,
170,,0.0,space,,,2.0,0.0-16.0-1.11,80,411,generalization,sound/920,0.0,613142.0,522.0,audio-keyboard-response,control,,71.0,,81.0,80.0,
171,,0.0,space,,,2.0,0.0-16.0-1.12,80,383,generalization,sound/880,0.0,615029.0,525.0,audio-keyboard-response,control,,72.0,,81.0,80.0,
172,,0.0,space,,,2.0,0.0-16.0-1.13,81,507,generalization,sound/280,0.0,617041.0,528.0,audio-keyboard-response,positive,-20,73.0,280.0,81.0,80.0,
173,,1.0,space,,,2.0,0.0-16.0-1.14,32,596,generalization,sound/600,0.0,619140.0,531.0,audio-keyboard-response,negative,-100,74.0,600.0,81.0,80.0,
174,,0.0,space,,,2.0,0.0-16.0-1.15,80,435,generalization,sound/800,0.0,621079.0,534.0,audio-keyboard-response,negative,100,75.0,800.0,81.0,80.0,
175,,0.0,space,,,2.0,0.0-16.0-1.16,81,472,generalization,sound/200,0.0,623055.0,537.0,audio-keyboard-response,positive,-100,76.0,200.0,81.0,80.0,
176,,1.0,space,,,2.0,0.0-16.0-1.17,32,494,generalization,sound/640,0.0,625054.0,540.0,audio-keyboard-response,negative,-60,77.0,640.0,81.0,80.0,
177,,0.0,space,,,2.0,0.0-16.0-1.18,81,450,generalization,sound/240,0.0,627009.0,543.0,audio-keyboard-response,positive,-60,78.0,240.0,81.0,80.0,
178,,1.0,q,,,2.0,0.0-16.0-1.19,81,382,generalization,sound/300,0.0,628893.0,546.0,audio-keyboard-response,positive,0,79.0,,81.0,80.0,
179,,0.0,space,,,2.0,0.0-16.0-1.20,81,424,generalization,sound/320,0.0,630822.0,549.0,audio-keyboard-response,positive,20,80.0,320.0,81.0,80.0,
180,,0.0,space,,,2.0,0.0-16.0-1.21,81,504,generalization,sound/295,0.0,632829.0,552.0,audio-keyboard-response,positive,-5,81.0,295.0,81.0,80.0,
181,,1.0,space,,,2.0,0.0-16.0-1.22,32,750,generalization,sound/400,0.0,635082.0,555.0,audio-keyboard-response,positive,100,82.0,400.0,81.0,80.0,
182,,1.0,space,,,2.0,0.0-16.0-1.23,32,643,generalization,sound/360,0.0,637229.0,558.0,audio-keyboard-response,positive,60,83.0,360.0,81.0,80.0,
183,,0.0,space,,,2.0,0.0-16.0-1.24,80,1405,generalization,sound/680,0.0,640138.0,561.0,audio-keyboard-response,negative,-20,84.0,680.0,81.0,80.0,
184,,1.0,p,,,2.0,0.0-16.0-1.25,80,776,generalization,sound/700,0.0,642419.0,564.0,audio-keyboard-response,negative,0,85.0,,81.0,80.0,
185,,1.0,q,,,2.0,0.0-16.0-1.26,81,548,generalization,sound/300,0.0,644471.0,567.0,audio-keyboard-response,positive,0,86.0,,81.0,80.0,
186,,1.0,space,,,2.0,0.0-16.0-1.27,32,574,generalization,sound/480,0.0,646547.0,570.0,audio-keyboard-response,control,,87.0,,81.0,80.0,
187,,0.0,space,,,2.0,0.0-16.0-1.28,80,623,generalization,sound/705,0.0,648674.0,573.0,audio-keyboard-response,negative,5,88.0,705.0,81.0,80.0,
188,,1.0,q,,,2.0,0.0-16.0-1.29,81,510,generalization,sound/300,0.0,650688.0,576.0,audio-keyboard-response,positive,0,89.0,,81.0,80.0,
189,instrumental,1.0,q,700,0.0,0.0,0.0-1.0-1.0,81,1233,acquisition,sound/700,1.0,230912.0,2.0,audio-keyboard-response,negative,,,,80.0,81.0,
190,instrumental,0.0,p,300,1.0,0.0,0.0-1.0-1.1,81,1241,acquisition,sound/300,1.0,234762.0,5.0,audio-keyboard-response,positive,,,,80.0,81.0,
191,instrumental,0.0,p,300,2.0,0.0,0.0-1.0-1.2,81,1457,acquisition,sound/300,1.0,238823.0,8.0,audio-keyboard-response,positive,,,,80.0,81.0,
192,instrumental,0.0,,500,3.0,0.0,0.0-1.0-1.3,80,1556,acquisition,sound/500,1.0,242984.0,11.0,audio-keyboard-response,neutral,,,,80.0,81.0,
193,pavlovian,1.0,,300,,0.0,0.0-1.0-1.4,,,acquisition,sound/300,1.0,248090.0,14.0,audio-keyboard-response,positive,,,,80.0,81.0,
194,instrumental,0.0,,500,4.0,0.0,0.0-1.0-1.5,81,1388,acquisition,sound/500,1.0,252083.0,17.0,audio-keyboard-response,neutral,,,,80.0,81.0,
195,instrumental,0.0,p,300,5.0,0.0,0.0-1.0-1.6,81,1196,acquisition,sound/300,1.0,255885.0,20.0,audio-keyboard-response,positive,,,,80.0,81.0,
196,pavlovian,0.0,,700,,0.0,0.0-1.0-1.7,,,acquisition,sound/700,1.0,260990.0,23.0,audio-keyboard-response,negative,,,,80.0,81.0,
197,instrumental,1.0,q,700,6.0,0.0,0.0-1.0-1.8,81,1390,acquisition,sound/700,1.0,264986.0,26.0,audio-keyboard-response,negative,,,,80.0,81.0,
198,instrumental,1.0,q,700,7.0,0.0,0.0-1.0-1.9,81,936,acquisition,sound/700,1.0,268527.0,29.0,audio-keyboard-response,negative,,,,80.0,81.0,
199,instrumental,0.0,,500,8.0,0.0,0.0-1.0-1.10,80,1017,acquisition,sound/500,1.0,272149.0,32.0,audio-keyboard-response,neutral,,,,80.0,81.0,
200,instrumental,0.0,,500,9.0,0.0,0.0-1.0-1.11,80,688,acquisition,sound/500,1.0,275442.0,35.0,audio-keyboard-response,neutral,,,,80.0,81.0,
201,instrumental,0.0,,500,10.0,0.0,0.0-1.0-1.12,80,509,acquisition,sound/500,1.0,278556.0,38.0,audio-keyboard-response,neutral,,,,80.0,81.0,
202,instrumental,0.0,p,300,11.0,0.0,0.0-1.0-1.13,81,798,acquisition,sound/300,1.0,281959.0,41.0,audio-keyboard-response,positive,,,,80.0,81.0,
203,instrumental,0.0,,500,12.0,0.0,0.0-1.0-1.14,80,1058,acquisition,sound/500,1.0,285621.0,44.0,audio-keyboard-response,neutral,,,,80.0,81.0,
204,pavlovian,0.0,,700,,0.0,0.0-1.0-1.15,,,acquisition,sound/700,1.0,290730.0,47.0,audio-keyboard-response,negative,,,,80.0,81.0,
205,instrumental,0.0,p,300,13.0,0.0,0.0-1.0-1.16,81,1456,acquisition,sound/300,1.0,294791.0,50.0,audio-keyboard-response,positive,,,,80.0,81.0,
206,instrumental,0.0,q,700,14.0,0.0,0.0-1.0-1.17,80,1206,acquisition,sound/700,1.0,298603.0,53.0,audio-keyboard-response,negative,,,,80.0,81.0,
207,instrumental,1.0,q,700,15.0,0.0,0.0-1.0-1.18,81,886,acquisition,sound/700,1.0,302095.0,56.0,audio-keyboard-response,negative,,,,80.0,81.0,
208,instrumental,1.0,q,700,16.0,0.0,0.0-1.0-1.19,81,1187,acquisition,sound/700,1.0,305888.0,59.0,audio-keyboard-response,negative,,,,80.0,81.0,
209,instrumental,1.0,p,300,17.0,0.0,0.0-1.0-1.20,80,1517,acquisition,sound/300,1.0,310010.0,62.0,audio-keyboard-response,positive,,,,80.0,81.0,
210,pavlovian,1.0,,300,,0.0,0.0-1.0-1.21,,,acquisition,sound/300,1.0,315116.0,65.0,audio-keyboard-response,positive,,,,80.0,81.0,
211,instrumental,1.0,q,700,18.0,0.0,0.0-1.0-1.22,81,670,acquisition,sound/700,1.0,318390.0,68.0,audio-keyboard-response,negative,,,,80.0,81.0,
212,instrumental,1.0,p,300,19.0,0.0,0.0-1.0-1.23,80,799,acquisition,sound/300,1.0,321795.0,71.0,audio-keyboard-response,positive,,,,80.0,81.0,
213,pavlovian,1.0,,300,,0.0,0.0-1.0-1.24,,,acquisition,sound/300,1.0,326899.0,74.0,audio-keyboard-response,positive,,,,80.0,81.0,
214,instrumental,1.0,p,300,20.0,0.0,0.0-1.0-1.25,80,582,acquisition,sound/300,1.0,330087.0,77.0,audio-keyboard-response,positive,,,,80.0,81.0,
215,instrumental,0.0,,500,21.0,0.0,0.0-1.0-1.26,81,738,acquisition,sound/500,1.0,333430.0,80.0,audio-keyboard-response,neutral,,,,80.0,81.0,
216,instrumental,1.0,p,300,22.0,0.0,0.0-1.0-1.27,80,778,acquisition,sound/300,1.0,336813.0,83.0,audio-keyboard-response,positive,,,,80.0,81.0,
217,pavlovian,0.0,,700,,0.0,0.0-1.0-1.28,,,acquisition,sound/700,1.0,341918.0,86.0,audio-keyboard-response,negative,,,,80.0,81.0,
218,instrumental,0.0,,500,23.0,0.0,0.0-1.0-1.29,80,883,acquisition,sound/500,1.0,345404.0,89.0,audio-keyboard-response,neutral,,,,80.0,81.0,
219,instrumental,0.0,,500,24.0,0.0,0.0-1.0-1.30,80,549,acquisition,sound/500,1.0,348558.0,92.0,audio-keyboard-response,neutral,,,,80.0,81.0,
220,instrumental,1.0,q,700,25.0,0.0,0.0-1.0-1.31,81,1038,acquisition,sound/700,1.0,352201.0,95.0,audio-keyboard-response,negative,,,,80.0,81.0,
221,instrumental,1.0,q,700,26.0,0.0,0.0-1.0-1.32,81,529,acquisition,sound/700,1.0,355334.0,98.0,audio-keyboard-response,negative,,,,80.0,81.0,
222,,1.0,q,,,0.0,0.0-4.0-1.0,81,900,generalization,sound/700,1.0,402256.0,103.0,audio-keyboard-response,negative,0,0.0,,80.0,81.0,
223,,1.0,p,,,0.0,0.0-4.0-1.1,80,660,generalization,sound/300,1.0,404421.0,106.0,audio-keyboard-response,positive,0,1.0,,80.0,81.0,
224,,0.0,space,,,0.0,0.0-4.0-1.2,80,809,generalization,sound/280,1.0,406736.0,109.0,audio-keyboard-response,positive,-20,2.0,280.0,80.0,81.0,
225,,1.0,space,,,0.0,0.0-4.0-1.3,32,679,generalization,sound/200,1.0,408922.0,112.0,audio-keyboard-response,positive,-100,3.0,200.0,80.0,81.0,
226,,0.0,space,,,0.0,0.0-4.0-1.4,81,928,generalization,sound/480,1.0,411355.0,115.0,audio-keyboard-response,control,,4.0,,80.0,81.0,
227,,0.0,space,,,0.0,0.0-4.0-1.5,80,1042,generalization,sound/500,1.0,413900.0,118.0,audio-keyboard-response,control,,5.0,,80.0,81.0,
228,,0.0,space,,,0.0,0.0-4.0-1.6,81,868,generalization,sound/695,1.0,416276.0,121.0,audio-keyboard-response,negative,-5,6.0,695.0,80.0,81.0,
229,,0.0,space,,,0.0,0.0-4.0-1.7,81,560,generalization,sound/720,1.0,418340.0,124.0,audio-keyboard-response,negative,20,7.0,720.0,80.0,81.0,
230,,0.0,space,,,0.0,0.0-4.0-1.8,81,612,generalization,sound/680,1.0,420456.0,127.0,audio-keyboard-response,negative,-20,8.0,680.0,80.0,81.0,
231,,1.0,space,,,0.0,0.0-4.0-1.9,32,899,generalization,sound/900,1.0,422860.0,130.0,audio-keyboard-response,control,,9.0,,80.0,81.0,
232,,0.0,space,,,0.0,0.0-4.0-1.10,80,790,generalization,sound/295,1.0,425155.0,133.0,audio-keyboard-response,positive,-5,10.0,295.0,80.0,81.0,
233,,1.0,space,,,0.0,0.0-4.0-1.11,32,989,generalization,sound/880,1.0,427651.0,136.0,audio-keyboard-response,control,,11.0,,80.0,81.0,
234,,0.0,space,,,0.0,0.0-4.0-1.12,80,1038,generalization,sound/400,1.0,430193.0,139.0,audio-keyboard-response,positive,100,12.0,400.0,80.0,81.0,
235,,1.0,space,,,0.0,0.0-4.0-1.13,32,902,generalization,sound/640,1.0,432599.0,142.0,audio-keyboard-response,negative,-60,13.0,640.0,80.0,81.0,
236,,0.0,space,,,0.0,0.0-4.0-1.14,80,890,generalization,sound/360,1.0,434993.0,145.0,audio-keyboard-response,positive,60,14.0,360.0,80.0,81.0,
237,,1.0,space,,,0.0,0.0-4.0-1.15,32,1019,generalization,sound/760,1.0,437518.0,148.0,audio-keyboard-response,negative,60,15.0,760.0,80.0,81.0,
238,,0.0,space,,,0.0,0.0-4.0-1.16,80,670,generalization,sound/240,1.0,439694.0,151.0,audio-keyboard-response,positive,-60,16.0,240.0,80.0,81.0,
239,,0.0,space,,,0.0,0.0-4.0-1.17,80,1148,generalization,sound/320,1.0,442347.0,154.0,audio-keyboard-response,positive,20,17.0,320.0,80.0,81.0,
240,,1.0,q,,,0.0,0.0-4.0-1.18,81,1338,generalization,sound/700,1.0,445191.0,157.0,audio-keyboard-response,negative,0,18.0,,80.0,81.0,
241,,1.0,q,,,0.0,0.0-4.0-1.19,81,1380,generalization,sound/700,1.0,448074.0,160.0,audio-keyboard-response,negative,0,19.0,,80.0,81.0,
242,,0.0,space,,,0.0,0.0-4.0-1.20,81,570,generalization,sound/705,1.0,450149.0,163.0,audio-keyboard-response,negative,5,20.0,705.0,80.0,81.0,
243,,1.0,space,,,0.0,0.0-4.0-1.21,32,920,generalization,sound/920,1.0,452573.0,166.0,audio-keyboard-response,control,,21.0,,80.0,81.0,
244,,1.0,q,,,0.0,0.0-4.0-1.22,81,910,generalization,sound/700,1.0,454987.0,169.0,audio-keyboard-response,negative,0,22.0,,80.0,81.0,
245,,0.0,space,,,0.0,0.0-4.0-1.23,81,1179,generalization,sound/800,1.0,457671.0,172.0,audio-keyboard-response,negative,100,23.0,800.0,80.0,81.0,
246,,1.0,p,,,0.0,0.0-4.0-1.24,80,816,generalization,sound/300,1.0,459996.0,175.0,audio-keyboard-response,positive,0,24.0,,80.0,81.0,
247,,1.0,space,,,0.0,0.0-4.0-1.25,32,751,generalization,sound/520,1.0,462251.0,178.0,audio-keyboard-response,control,,25.0,,80.0,81.0,
248,,0.0,space,,,0.0,0.0-4.0-1.26,80,578,generalization,sound/305,1.0,464335.0,181.0,audio-keyboard-response,positive,5,26.0,305.0,80.0,81.0,
249,,1.0,p,,,0.0,0.0-4.0-1.27,80,871,generalization,sound/300,1.0,466710.0,184.0,audio-keyboard-response,positive,0,27.0,,80.0,81.0,
250,,1.0,p,,,0.0,0.0-4.0-1.28,80,550,generalization,sound/300,1.0,468765.0,187.0,audio-keyboard-response,positive,0,28.0,,80.0,81.0,
251,,1.0,space,,,0.0,0.0-4.0-1.29,32,691,generalization,sound/600,1.0,470961.0,190.0,audio-keyboard-response,negative,-100,29.0,600.0,80.0,81.0,
252,instrumental,1.0,q,700,27.0,1.0,0.0-7.0-1.0,81,1061,acquisition,sound/700,1.0,484029.0,195.0,audio-keyboard-response,negative,,,,80.0,81.0,
253,instrumental,0.0,,500,28.0,1.0,0.0-7.0-1.1,80,705,acquisition,sound/500,1.0,487340.0,198.0,audio-keyboard-response,neutral,,,,80.0,81.0,
254,instrumental,1.0,p,300,29.0,1.0,0.0-7.0-1.2,80,877,acquisition,sound/300,1.0,490822.0,201.0,audio-keyboard-response,positive,,,,80.0,81.0,
255,instrumental,1.0,p,300,30.0,1.0,0.0-7.0-1.3,80,698,acquisition,sound/300,1.0,494124.0,204.0,audio-keyboard-response,positive,,,,80.0,81.0,
256,pavlovian,1.0,,300,,1.0,0.0-7.0-1.4,,,acquisition,sound/300,1.0,499231.0,207.0,audio-keyboard-response,positive,,,,80.0,81.0,
257,instrumental,0.0,,500,31.0,1.0,0.0-7.0-1.5,80,1069,acquisition,sound/500,1.0,502903.0,210.0,audio-keyboard-response,neutral,,,,80.0,81.0,
258,instrumental,0.0,,500,32.0,1.0,0.0-7.0-1.6,80,796,acquisition,sound/500,1.0,506305.0,213.0,audio-keyboard-response,neutral,,,,80.0,81.0,
259,pavlovian,0.0,,700,,1.0,0.0-7.0-1.7,,,acquisition,sound/700,1.0,511411.0,216.0,audio-keyboard-response,negative,,,,80.0,81.0,
260,instrumental,1.0,p,300,33.0,1.0,0.0-7.0-1.8,80,616,acquisition,sound/300,1.0,514634.0,219.0,audio-keyboard-response,positive,,,,80.0,81.0,
261,instrumental,1.0,q,700,34.0,1.0,0.0-7.0-1.9,81,636,acquisition,sound/700,1.0,517877.0,222.0,audio-keyboard-response,negative,,,,80.0,81.0,
262,instrumental,1.0,q,700,35.0,1.0,0.0-7.0-1.10,81,915,acquisition,sound/700,1.0,521397.0,225.0,audio-keyboard-response,negative,,,,80.0,81.0,
263,instrumental,0.0,,500,36.0,1.0,0.0-7.0-1.11,80,669,acquisition,sound/500,1.0,524671.0,228.0,audio-keyboard-response,neutral,,,,80.0,81.0,
264,instrumental,1.0,q,700,37.0,1.0,0.0-7.0-1.12,81,897,acquisition,sound/700,1.0,528172.0,231.0,audio-keyboard-response,negative,,,,80.0,81.0,
265,instrumental,0.0,,500,38.0,1.0,0.0-7.0-1.13,80,727,acquisition,sound/500,1.0,531504.0,234.0,audio-keyboard-response,neutral,,,,80.0,81.0,
266,instrumental,1.0,p,300,39.0,1.0,0.0-7.0-1.14,80,578,acquisition,sound/300,1.0,534687.0,237.0,audio-keyboard-response,positive,,,,80.0,81.0,
267,instrumental,1.0,q,700,40.0,1.0,0.0-7.0-1.15,81,687,acquisition,sound/700,1.0,537979.0,240.0,audio-keyboard-response,negative,,,,80.0,81.0,
268,instrumental,0.0,,500,41.0,1.0,0.0-7.0-1.16,80,657,acquisition,sound/500,1.0,541241.0,243.0,audio-keyboard-response,neutral,,,,80.0,81.0,
269,instrumental,1.0,q,700,42.0,1.0,0.0-7.0-1.17,81,737,acquisition,sound/700,1.0,544584.0,246.0,audio-keyboard-response,negative,,,,80.0,81.0,
270,instrumental,1.0,p,300,43.0,1.0,0.0-7.0-1.18,80,578,acquisition,sound/300,1.0,547766.0,249.0,audio-keyboard-response,positive,,,,80.0,81.0,
271,pavlovian,0.0,,700,,1.0,0.0-7.0-1.19,,,acquisition,sound/700,1.0,552872.0,252.0,audio-keyboard-response,negative,,,,80.0,81.0,
272,instrumental,1.0,p,300,44.0,1.0,0.0-7.0-1.20,80,709,acquisition,sound/300,1.0,556187.0,255.0,audio-keyboard-response,positive,,,,80.0,81.0,
273,pavlovian,1.0,,300,,1.0,0.0-7.0-1.21,,,acquisition,sound/300,1.0,561293.0,258.0,audio-keyboard-response,positive,,,,80.0,81.0,
274,instrumental,1.0,q,700,45.0,1.0,0.0-7.0-1.22,81,660,acquisition,sound/700,1.0,564558.0,261.0,audio-keyboard-response,negative,,,,80.0,81.0,
275,instrumental,1.0,q,700,46.0,1.0,0.0-7.0-1.23,81,587,acquisition,sound/700,1.0,567751.0,264.0,audio-keyboard-response,negative,,,,80.0,81.0,
276,instrumental,1.0,q,700,47.0,1.0,0.0-7.0-1.24,81,529,acquisition,sound/700,1.0,570883.0,267.0,audio-keyboard-response,negative,,,,80.0,81.0,
277,instrumental,0.0,,500,48.0,1.0,0.0-7.0-1.25,80,628,acquisition,sound/500,1.0,574116.0,270.0,audio-keyboard-response,neutral,,,,80.0,81.0,
278,instrumental,1.0,p,300,49.0,1.0,0.0-7.0-1.26,80,1555,acquisition,sound/300,1.0,578277.0,273.0,audio-keyboard-response,positive,,,,80.0,81.0,
279,instrumental,1.0,p,300,50.0,1.0,0.0-7.0-1.27,80,608,acquisition,sound/300,1.0,581489.0,276.0,audio-keyboard-response,positive,,,,80.0,81.0,
280,instrumental,1.0,p,300,51.0,1.0,0.0-7.0-1.28,80,639,acquisition,sound/300,1.0,584732.0,279.0,audio-keyboard-response,positive,,,,80.0,81.0,
281,pavlovian,1.0,,300,,1.0,0.0-7.0-1.29,,,acquisition,sound/300,1.0,589838.0,282.0,audio-keyboard-response,positive,,,,80.0,81.0,
282,instrumental,0.0,,500,52.0,1.0,0.0-7.0-1.30,80,1049,acquisition,sound/500,1.0,593491.0,285.0,audio-keyboard-response,neutral,,,,80.0,81.0,
283,pavlovian,0.0,,700,,1.0,0.0-7.0-1.31,,,acquisition,sound/700,1.0,598597.0,288.0,audio-keyboard-response,negative,,,,80.0,81.0,
284,instrumental,0.0,,500,53.0,1.0,0.0-7.0-1.32,80,938,acquisition,sound/500,1.0,602141.0,291.0,audio-keyboard-response,neutral,,,,80.0,81.0,
285,,0.0,space,,,1.0,0.0-10.0-1.0,80,973,generalization,sound/500,1.0,614633.0,296.0,audio-keyboard-response,control,,30.0,,80.0,81.0,
286,,1.0,space,,,1.0,0.0-10.0-1.1,32,1070,generalization,sound/200,1.0,617208.0,299.0,audio-keyboard-response,positive,-100,31.0,200.0,80.0,81.0,
287,,0.0,space,,,1.0,0.0-10.0-1.2,81,1168,generalization,sound/695,1.0,619881.0,302.0,audio-keyboard-response,negative,-5,32.0,695.0,80.0,81.0,
288,,1.0,space,,,1.0,0.0-10.0-1.3,32,1409,generalization,sound/280,1.0,622795.0,305.0,audio-keyboard-response,positive,-20,33.0,280.0,80.0,81.0,
289,,1.0,space,,,1.0,0.0-10.0-1.4,32,1019,generalization,sound/295,1.0,625318.0,308.0,audio-keyboard-response,positive,-5,34.0,295.0,80.0,81.0,
290,,0.0,space,,,1.0,0.0-10.0-1.5,80,1170,generalization,sound/480,1.0,627993.0,311.0,audio-keyboard-response,control,,35.0,,80.0,81.0,
291,,0.0,space,,,1.0,0.0-10.0-1.6,81,950,generalization,sound/720,1.0,630448.0,314.0,audio-keyboard-response,negative,20,36.0,720.0,80.0,81.0,
292,,1.0,p,,,1.0,0.0-10.0-1.7,80,980,generalization,sound/300,1.0,632932.0,317.0,audio-keyboard-response,positive,0,37.0,,80.0,81.0,
293,,1.0,p,,,1.0,0.0-10.0-1.8,80,848,generalization,sound/300,1.0,635286.0,320.0,audio-keyboard-response,positive,0,38.0,,80.0,81.0,
294,,0.0,space,,,1.0,0.0-10.0-1.9,81,580,generalization,sound/800,1.0,637371.0,323.0,audio-keyboard-response,negative,100,39.0,800.0,80.0,81.0,
295,,1.0,q,,,1.0,0.0-10.0-1.10,81,1199,generalization,sound/700,1.0,640075.0,326.0,audio-keyboard-response,negative,0,40.0,,80.0,81.0,
296,,1.0,space,,,1.0,0.0-10.0-1.11,32,1048,generalization,sound/360,1.0,642629.0,329.0,audio-keyboard-response,positive,60,41.0,360.0,80.0,81.0,
297,,0.0,space,,,1.0,0.0-10.0-1.12,80,931,generalization,sound/520,1.0,645064.0,332.0,audio-keyboard-response,control,,42.0,,80.0,81.0,
298,,0.0,space,,,1.0,0.0-10.0-1.13,80,760,generalization,sound/240,1.0,647328.0,335.0,audio-keyboard-response,positive,-60,43.0,240.0,80.0,81.0,
299,,0.0,space,,,1.0,0.0-10.0-1.14,81,659,generalization,sound/900,1.0,649493.0,338.0,audio-keyboard-response,control,,44.0,,80.0,81.0,
300,,1.0,space,,,1.0,0.0-10.0-1.15,32,710,generalization,sound/920,1.0,651708.0,341.0,audio-keyboard-response,control,,45.0,,80.0,81.0,
301,,0.0,space,,,1.0,0.0-10.0-1.16,81,930,generalization,sound/880,1.0,654143.0,344.0,audio-keyboard-response,control,,46.0,,80.0,81.0,
302,,1.0,p,,,1.0,0.0-10.0-1.17,80,979,generalization,sound/300,1.0,656627.0,347.0,audio-keyboard-response,positive,0,47.0,,80.0,81.0,
303,,0.0,q,,,1.0,0.0-10.0-1.18,32,1468,generalization,sound/700,1.0,659600.0,350.0,audio-keyboard-response,negative,0,48.0,,80.0,81.0,
304,,0.0,q,,,1.0,0.0-10.0-1.19,32,1119,generalization,sound/700,1.0,662224.0,353.0,audio-keyboard-response,negative,0,49.0,,80.0,81.0,
305,,1.0,space,,,1.0,0.0-10.0-1.20,32,533,generalization,sound/705,1.0,664261.0,356.0,audio-keyboard-response,negative,5,50.0,705.0,80.0,81.0,
306,,1.0,p,,,1.0,0.0-10.0-1.21,80,938,generalization,sound/300,1.0,666703.0,359.0,audio-keyboard-response,positive,0,51.0,,80.0,81.0,
307,,1.0,space,,,1.0,0.0-10.0-1.22,32,819,generalization,sound/760,1.0,669027.0,362.0,audio-keyboard-response,negative,60,52.0,760.0,80.0,81.0,
308,,1.0,space,,,1.0,0.0-10.0-1.23,32,1179,generalization,sound/400,1.0,671712.0,365.0,audio-keyboard-response,positive,100,53.0,400.0,80.0,81.0,
309,,1.0,space,,,1.0,0.0-10.0-1.24,32,891,generalization,sound/640,1.0,674106.0,368.0,audio-keyboard-response,negative,-60,54.0,640.0,80.0,81.0,
310,,0.0,q,,,1.0,0.0-10.0-1.25,32,729,generalization,sound/700,1.0,676340.0,371.0,audio-keyboard-response,negative,0,55.0,,80.0,81.0,
311,,0.0,space,,,1.0,0.0-10.0-1.26,80,780,generalization,sound/320,1.0,678625.0,374.0,audio-keyboard-response,positive,20,56.0,320.0,80.0,81.0,
312,,1.0,space,,,1.0,0.0-10.0-1.27,32,840,generalization,sound/600,1.0,680969.0,377.0,audio-keyboard-response,negative,-100,57.0,600.0,80.0,81.0,
313,,1.0,space,,,1.0,0.0-10.0-1.28,32,908,generalization,sound/680,1.0,683383.0,380.0,audio-keyboard-response,negative,-20,58.0,680.0,80.0,81.0,
314,,0.0,space,,,1.0,0.0-10.0-1.29,80,721,generalization,sound/305,1.0,685607.0,383.0,audio-keyboard-response,positive,5,59.0,305.0,80.0,81.0,
315,instrumental,0.0,,500,54.0,2.0,0.0-13.0-1.0,80,890,acquisition,sound/500,1.0,697160.0,388.0,audio-keyboard-response,neutral,,,,80.0,81.0,
316,instrumental,1.0,p,300,55.0,2.0,0.0-13.0-1.1,80,938,acquisition,sound/300,1.0,700702.0,391.0,audio-keyboard-response,positive,,,,80.0,81.0,
317,instrumental,1.0,q,700,56.0,2.0,0.0-13.0-1.2,81,876,acquisition,sound/700,1.0,704182.0,394.0,audio-keyboard-response,negative,,,,80.0,81.0,
318,instrumental,1.0,q,700,57.0,2.0,0.0-13.0-1.3,81,775,acquisition,sound/700,1.0,707564.0,397.0,audio-keyboard-response,negative,,,,80.0,81.0,
319,instrumental,0.0,,500,58.0,2.0,0.0-13.0-1.4,80,935,acquisition,sound/500,1.0,711105.0,400.0,audio-keyboard-response,neutral,,,,80.0,81.0,
320,pavlovian,0.0,,700,,2.0,0.0-13.0-1.5,,,acquisition,sound/700,1.0,716211.0,403.0,audio-keyboard-response,negative,,,,80.0,81.0,
321,instrumental,1.0,p,300,59.0,2.0,0.0-13.0-1.6,80,987,acquisition,sound/300,1.0,719804.0,406.0,audio-keyboard-response,positive,,,,80.0,81.0,
322,pavlovian,1.0,,300,,2.0,0.0-13.0-1.7,80,936,acquisition,sound/300,1.0,724909.0,409.0,audio-keyboard-response,positive,,,,80.0,81.0,
323,instrumental,1.0,q,700,60.0,2.0,0.0-13.0-1.8,81,788,acquisition,sound/700,1.0,728302.0,412.0,audio-keyboard-response,negative,,,,80.0,81.0,
324,instrumental,1.0,p,300,61.0,2.0,0.0-13.0-1.9,80,837,acquisition,sound/300,1.0,731744.0,415.0,audio-keyboard-response,positive,,,,80.0,81.0,
325,instrumental,1.0,,500,62.0,2.0,0.0-13.0-1.10,,,acquisition,sound/500,1.0,736850.0,418.0,audio-keyboard-response,neutral,,,,80.0,81.0,
326,pavlovian,0.0,,700,,2.0,0.0-13.0-1.11,,,acquisition,sound/700,1.0,741955.0,421.0,audio-keyboard-response,negative,,,,80.0,81.0,
327,instrumental,0.0,,500,63.0,2.0,0.0-13.0-1.12,80,801,acquisition,sound/500,1.0,745360.0,424.0,audio-keyboard-response,neutral,,,,80.0,81.0,
328,instrumental,1.0,p,300,64.0,2.0,0.0-13.0-1.13,80,825,acquisition,sound/300,1.0,748792.0,427.0,audio-keyboard-response,positive,,,,80.0,81.0,
329,instrumental,1.0,,500,65.0,2.0,0.0-13.0-1.14,,,acquisition,sound/500,1.0,753897.0,430.0,audio-keyboard-response,neutral,,,,80.0,81.0,
330,instrumental,0.0,,500,66.0,2.0,0.0-13.0-1.15,80,1218,acquisition,sound/500,1.0,757722.0,433.0,audio-keyboard-response,neutral,,,,80.0,81.0,
331,instrumental,1.0,q,700,67.0,2.0,0.0-13.0-1.16,81,558,acquisition,sound/700,1.0,760883.0,436.0,audio-keyboard-response,negative,,,,80.0,81.0,
332,instrumental,1.0,q,700,68.0,2.0,0.0-13.0-1.17,81,1027,acquisition,sound/700,1.0,764516.0,439.0,audio-keyboard-response,negative,,,,80.0,81.0,
333,instrumental,1.0,q,700,69.0,2.0,0.0-13.0-1.18,81,866,acquisition,sound/700,1.0,767987.0,442.0,audio-keyboard-response,negative,,,,80.0,81.0,
334,instrumental,1.0,p,300,70.0,2.0,0.0-13.0-1.19,80,904,acquisition,sound/300,1.0,771499.0,445.0,audio-keyboard-response,positive,,,,80.0,81.0,
335,instrumental,1.0,p,300,71.0,2.0,0.0-13.0-1.20,80,697,acquisition,sound/300,1.0,774801.0,448.0,audio-keyboard-response,positive,,,,80.0,81.0,
336,pavlovian,1.0,,300,,2.0,0.0-13.0-1.21,,,acquisition,sound/300,1.0,779906.0,451.0,audio-keyboard-response,positive,,,,80.0,81.0,
337,instrumental,1.0,p,300,72.0,2.0,0.0-13.0-1.22,80,708,acquisition,sound/300,1.0,783223.0,454.0,audio-keyboard-response,positive,,,,80.0,81.0,
338,instrumental,1.0,q,700,73.0,2.0,0.0-13.0-1.23,81,857,acquisition,sound/700,1.0,786684.0,457.0,audio-keyboard-response,negative,,,,80.0,81.0,
339,pavlovian,0.0,,700,,2.0,0.0-13.0-1.24,,,acquisition,sound/700,1.0,791788.0,460.0,audio-keyboard-response,negative,,,,80.0,81.0,
340,instrumental,0.0,p,300,74.0,2.0,0.0-13.0-1.25,,,acquisition,sound/300,1.0,796894.0,463.0,audio-keyboard-response,positive,,,,80.0,81.0,
341,instrumental,1.0,p,300,75.0,2.0,0.0-13.0-1.26,80,1072,acquisition,sound/300,1.0,800571.0,466.0,audio-keyboard-response,positive,,,,80.0,81.0,
342,instrumental,1.0,q,700,76.0,2.0,0.0-13.0-1.27,81,787,acquisition,sound/700,1.0,803964.0,469.0,audio-keyboard-response,negative,,,,80.0,81.0,
343,instrumental,1.0,,500,77.0,2.0,0.0-13.0-1.28,,,acquisition,sound/500,1.0,809068.0,472.0,audio-keyboard-response,neutral,,,,80.0,81.0,
344,pavlovian,1.0,,300,,2.0,0.0-13.0-1.29,,,acquisition,sound/300,1.0,814175.0,475.0,audio-keyboard-response,positive,,,,80.0,81.0,
345,instrumental,1.0,,500,78.0,2.0,0.0-13.0-1.30,,,acquisition,sound/500,1.0,819279.0,478.0,audio-keyboard-response,neutral,,,,80.0,81.0,
346,instrumental,0.0,,500,79.0,2.0,0.0-13.0-1.31,81,1355,acquisition,sound/500,1.0,823240.0,481.0,audio-keyboard-response,neutral,,,,80.0,81.0,
347,instrumental,1.0,q,700,80.0,2.0,0.0-13.0-1.32,81,977,acquisition,sound/700,1.0,826822.0,484.0,audio-keyboard-response,negative,,,,80.0,81.0,
348,,1.0,q,,,2.0,0.0-16.0-1.0,81,1059,generalization,sound/700,1.0,837287.0,489.0,audio-keyboard-response,negative,0,60.0,,80.0,81.0,
349,,1.0,space,,,2.0,0.0-16.0-1.1,32,1281,generalization,sound/900,1.0,840072.0,492.0,audio-keyboard-response,control,,61.0,,80.0,81.0,
350,,1.0,space,,,2.0,0.0-16.0-1.2,32,1288,generalization,sound/320,1.0,842866.0,495.0,audio-keyboard-response,positive,20,62.0,320.0,80.0,81.0,
351,,0.0,space,,,2.0,0.0-16.0-1.3,81,1489,generalization,sound/705,1.0,845860.0,498.0,audio-keyboard-response,negative,5,63.0,705.0,80.0,81.0,
352,,1.0,space,,,2.0,0.0-16.0-1.4,32,1338,generalization,sound/360,1.0,848703.0,501.0,audio-keyboard-response,positive,60,64.0,360.0,80.0,81.0,
353,,0.0,q,,,2.0,0.0-16.0-1.5,32,939,generalization,sound/700,1.0,851147.0,504.0,audio-keyboard-response,negative,0,65.0,,80.0,81.0,
354,,1.0,space,,,2.0,0.0-16.0-1.6,32,1129,generalization,sound/600,1.0,853782.0,507.0,audio-keyboard-response,negative,-100,66.0,600.0,80.0,81.0,
355,,0.0,q,,,2.0,0.0-16.0-1.7,32,690,generalization,sound/700,1.0,855978.0,510.0,audio-keyboard-response,negative,0,67.0,,80.0,81.0,
356,,1.0,q,,,2.0,0.0-16.0-1.8,81,651,generalization,sound/700,1.0,858133.0,513.0,audio-keyboard-response,negative,0,68.0,,80.0,81.0,
357,,1.0,space,,,2.0,0.0-16.0-1.9,32,999,generalization,sound/800,1.0,860637.0,516.0,audio-keyboard-response,negative,100,69.0,800.0,80.0,81.0,
358,,0.0,space,,,2.0,0.0-16.0-1.10,80,821,generalization,sound/200,1.0,862963.0,519.0,audio-keyboard-response,positive,-100,70.0,200.0,80.0,81.0,
359,,0.0,space,,,2.0,0.0-16.0-1.11,81,848,generalization,sound/695,1.0,865317.0,522.0,audio-keyboard-response,negative,-5,71.0,695.0,80.0,81.0,
360,,1.0,space,,,2.0,0.0-16.0-1.12,32,1181,generalization,sound/880,1.0,868002.0,525.0,audio-keyboard-response,control,,72.0,,80.0,81.0,
361,,1.0,space,,,2.0,0.0-16.0-1.13,32,1131,generalization,sound/760,1.0,870636.0,528.0,audio-keyboard-response,negative,60,73.0,760.0,80.0,81.0,
362,,0.0,space,,,2.0,0.0-16.0-1.14,81,1099,generalization,sound/680,1.0,873240.0,531.0,audio-keyboard-response,negative,-20,74.0,680.0,80.0,81.0,
363,,0.0,space,,,2.0,0.0-16.0-1.15,80,719,generalization,sound/280,1.0,875464.0,534.0,audio-keyboard-response,positive,-20,75.0,280.0,80.0,81.0,
364,,0.0,p,,,2.0,0.0-16.0-1.16,32,1559,generalization,sound/300,1.0,878528.0,537.0,audio-keyboard-response,positive,0,76.0,,80.0,81.0,
365,,1.0,p,,,2.0,0.0-16.0-1.17,80,789,generalization,sound/300,1.0,880822.0,540.0,audio-keyboard-response,positive,0,77.0,,80.0,81.0,
366,,1.0,space,,,2.0,0.0-16.0-1.18,32,840,generalization,sound/400,1.0,883167.0,543.0,audio-keyboard-response,positive,100,78.0,400.0,80.0,81.0,
367,,0.0,space,,,2.0,0.0-16.0-1.19,81,1072,generalization,sound/720,1.0,885744.0,546.0,audio-keyboard-response,negative,20,79.0,720.0,80.0,81.0,
368,,1.0,space,,,2.0,0.0-16.0-1.20,32,1056,generalization,sound/480,1.0,888306.0,549.0,audio-keyboard-response,control,,80.0,,80.0,81.0,
369,,1.0,space,,,2.0,0.0-16.0-1.21,32,1101,generalization,sound/520,1.0,890911.0,552.0,audio-keyboard-response,control,,81.0,,80.0,81.0,
370,,0.0,space,,,2.0,0.0-16.0-1.22,80,858,generalization,sound/295,1.0,893274.0,555.0,audio-keyboard-response,positive,-5,82.0,295.0,80.0,81.0,
371,,1.0,space,,,2.0,0.0-16.0-1.23,32,1241,generalization,sound/920,1.0,896019.0,558.0,audio-keyboard-response,control,,83.0,,80.0,81.0,
372,,0.0,space,,,2.0,0.0-16.0-1.24,81,749,generalization,sound/500,1.0,898273.0,561.0,audio-keyboard-response,control,,84.0,,80.0,81.0,
373,,1.0,p,,,2.0,0.0-16.0-1.25,80,902,generalization,sound/300,1.0,900678.0,564.0,audio-keyboard-response,positive,0,85.0,,80.0,81.0,
374,,0.0,space,,,2.0,0.0-16.0-1.26,81,1258,generalization,sound/640,1.0,903442.0,567.0,audio-keyboard-response,negative,-60,86.0,640.0,80.0,81.0,
375,,0.0,space,,,2.0,0.0-16.0-1.27,80,740,generalization,sound/240,1.0,905688.0,570.0,audio-keyboard-response,positive,-60,87.0,240.0,80.0,81.0,
376,,1.0,p,,,2.0,0.0-16.0-1.28,80,1168,generalization,sound/300,1.0,908361.0,573.0,audio-keyboard-response,positive,0,88.0,,80.0,81.0,
377,,0.0,space,,,2.0,0.0-16.0-1.29,80,599,generalization,sound/305,1.0,910466.0,576.0,audio-keyboard-response,positive,5,89.0,305.0,80.0,81.0,
378,instrumental,1.0,q,300,0.0,0.0,0.0-1.0-1.0,81,852,acquisition,sound/300,2.0,35451.0,2.0,audio-keyboard-response,positive,,,,81.0,80.0,
379,instrumental,0.0,,500,1.0,0.0,0.0-1.0-1.1,80,498,acquisition,sound/500,2.0,38566.0,5.0,audio-keyboard-response,neutral,,,,81.0,80.0,
380,pavlovian,1.0,,300,,0.0,0.0-1.0-1.2,,,acquisition,sound/300,2.0,43682.0,8.0,audio-keyboard-response,positive,,,,81.0,80.0,
381,instrumental,1.0,p,700,2.0,0.0,0.0-1.0-1.3,80,955,acquisition,sound/700,2.0,47247.0,11.0,audio-keyboard-response,negative,,,,81.0,80.0,
382,instrumental,1.0,p,700,3.0,0.0,0.0-1.0-1.4,80,834,acquisition,sound/700,2.0,50697.0,14.0,audio-keyboard-response,negative,,,,81.0,80.0,
383,instrumental,0.0,p,700,4.0,0.0,0.0-1.0-1.5,81,596,acquisition,sound/700,2.0,53910.0,17.0,audio-keyboard-response,negative,,,,81.0,80.0,
384,instrumental,0.0,,500,5.0,0.0,0.0-1.0-1.6,81,608,acquisition,sound/500,2.0,57131.0,20.0,audio-keyboard-response,neutral,,,,81.0,80.0,
385,pavlovian,0.0,,700,,0.0,0.0-1.0-1.7,,,acquisition,sound/700,2.0,62249.0,23.0,audio-keyboard-response,negative,,,,81.0,80.0,
386,instrumental,0.0,,500,6.0,0.0,0.0-1.0-1.8,81,633,acquisition,sound/500,2.0,65495.0,26.0,audio-keyboard-response,neutral,,,,81.0,80.0,
387,instrumental,1.0,q,300,7.0,0.0,0.0-1.0-1.9,81,1056,acquisition,sound/300,2.0,69165.0,29.0,audio-keyboard-response,positive,,,,81.0,80.0,
388,instrumental,1.0,q,300,8.0,0.0,0.0-1.0-1.10,81,752,acquisition,sound/300,2.0,72529.0,32.0,audio-keyboard-response,positive,,,,81.0,80.0,
389,instrumental,1.0,,500,9.0,0.0,0.0-1.0-1.11,,,acquisition,sound/500,2.0,77646.0,35.0,audio-keyboard-response,neutral,,,,81.0,80.0,
390,instrumental,1.0,p,700,10.0,0.0,0.0-1.0-1.12,80,744,acquisition,sound/700,2.0,81007.0,38.0,audio-keyboard-response,negative,,,,81.0,80.0,
391,instrumental,0.0,,500,11.0,0.0,0.0-1.0-1.13,81,571,acquisition,sound/500,2.0,84191.0,41.0,audio-keyboard-response,neutral,,,,81.0,80.0,
392,instrumental,1.0,p,700,12.0,0.0,0.0-1.0-1.14,80,932,acquisition,sound/700,2.0,87737.0,44.0,audio-keyboard-response,negative,,,,81.0,80.0,
393,instrumental,1.0,p,700,13.0,0.0,0.0-1.0-1.15,80,643,acquisition,sound/700,2.0,90998.0,47.0,audio-keyboard-response,negative,,,,81.0,80.0,
394,instrumental,1.0,q,300,14.0,0.0,0.0-1.0-1.16,81,551,acquisition,sound/300,2.0,94159.0,50.0,audio-keyboard-response,positive,,,,81.0,80.0,
395,instrumental,1.0,q,300,15.0,0.0,0.0-1.0-1.17,81,513,acquisition,sound/300,2.0,97287.0,53.0,audio-keyboard-response,positive,,,,81.0,80.0,
396,pavlovian,1.0,,300,,0.0,0.0-1.0-1.18,,,acquisition,sound/300,2.0,102397.0,56.0,audio-keyboard-response,positive,,,,81.0,80.0,
397,instrumental,1.0,q,300,16.0,0.0,0.0-1.0-1.19,81,560,acquisition,sound/300,2.0,105570.0,59.0,audio-keyboard-response,positive,,,,81.0,80.0,
398,pavlovian,0.0,,700,,0.0,0.0-1.0-1.20,,,acquisition,sound/700,2.0,110680.0,62.0,audio-keyboard-response,negative,,,,81.0,80.0,
399,instrumental,0.0,,500,17.0,0.0,0.0-1.0-1.21,81,837,acquisition,sound/500,2.0,114129.0,65.0,audio-keyboard-response,neutral,,,,81.0,80.0,
400,instrumental,0.0,q,300,18.0,0.0,0.0-1.0-1.22,80,872,acquisition,sound/300,2.0,117614.0,68.0,audio-keyboard-response,positive,,,,81.0,80.0,
401,instrumental,1.0,p,700,19.0,0.0,0.0-1.0-1.23,80,746,acquisition,sound/700,2.0,120978.0,71.0,audio-keyboard-response,negative,,,,81.0,80.0,
402,instrumental,0.0,,500,20.0,0.0,0.0-1.0-1.24,81,582,acquisition,sound/500,2.0,124172.0,74.0,audio-keyboard-response,neutral,,,,81.0,80.0,
403,instrumental,0.0,p,700,21.0,0.0,0.0-1.0-1.25,81,737,acquisition,sound/700,2.0,127523.0,77.0,audio-keyboard-response,negative,,,,81.0,80.0,
404,instrumental,1.0,p,700,22.0,0.0,0.0-1.0-1.26,80,580,acquisition,sound/700,2.0,130718.0,80.0,audio-keyboard-response,negative,,,,81.0,80.0,
405,instrumental,0.0,,500,23.0,0.0,0.0-1.0-1.27,81,551,acquisition,sound/500,2.0,133874.0,83.0,audio-keyboard-response,neutral,,,,81.0,80.0,
406,pavlovian,0.0,,700,,0.0,0.0-1.0-1.28,80,803,acquisition,sound/700,2.0,138987.0,86.0,audio-keyboard-response,negative,,,,81.0,80.0,
407,instrumental,0.0,,500,24.0,0.0,0.0-1.0-1.29,81,522,acquisition,sound/500,2.0,142124.0,89.0,audio-keyboard-response,neutral,,,,81.0,80.0,
408,instrumental,0.0,q,300,25.0,0.0,0.0-1.0-1.30,80,738,acquisition,sound/300,2.0,145473.0,92.0,audio-keyboard-response,positive,,,,81.0,80.0,
409,pavlovian,1.0,,300,,0.0,0.0-1.0-1.31,,,acquisition,sound/300,2.0,150593.0,95.0,audio-keyboard-response,positive,,,,81.0,80.0,
410,instrumental,1.0,q,300,26.0,0.0,0.0-1.0-1.32,81,523,acquisition,sound/300,2.0,153732.0,98.0,audio-keyboard-response,positive,,,,81.0,80.0,
411,,1.0,q,,,0.0,0.0-4.0-1.0,81,1104,generalization,sound/300,2.0,205545.0,103.0,audio-keyboard-response,positive,0,0.0,,81.0,80.0,
412,,1.0,space,,,0.0,0.0-4.0-1.1,32,812,generalization,sound/880,2.0,207874.0,106.0,audio-keyboard-response,control,,1.0,,81.0,80.0,
413,,1.0,space,,,0.0,0.0-4.0-1.2,32,479,generalization,sound/900,2.0,209865.0,109.0,audio-keyboard-response,control,,2.0,,81.0,80.0,
414,,0.0,space,,,0.0,0.0-4.0-1.3,80,1156,generalization,sound/200,2.0,212532.0,112.0,audio-keyboard-response,positive,-100,3.0,200.0,81.0,80.0,
415,,1.0,space,,,0.0,0.0-4.0-1.4,32,1246,generalization,sound/520,2.0,215288.0,115.0,audio-keyboard-response,control,,4.0,,81.0,80.0,
416,,1.0,space,,,0.0,0.0-4.0-1.5,32,1081,generalization,sound/400,2.0,217879.0,118.0,audio-keyboard-response,positive,100,5.0,400.0,81.0,80.0,
417,,0.0,p,,,0.0,0.0-4.0-1.6,32,815,generalization,sound/700,2.0,220207.0,121.0,audio-keyboard-response,negative,0,6.0,,81.0,80.0,
418,,1.0,p,,,0.0,0.0-4.0-1.7,80,856,generalization,sound/700,2.0,222576.0,124.0,audio-keyboard-response,negative,0,7.0,,81.0,80.0,
419,,1.0,q,,,0.0,0.0-4.0-1.8,81,613,generalization,sound/300,2.0,224698.0,127.0,audio-keyboard-response,positive,0,8.0,,81.0,80.0,
420,,1.0,space,,,0.0,0.0-4.0-1.9,32,1120,generalization,sound/480,2.0,227327.0,130.0,audio-keyboard-response,control,,9.0,,81.0,80.0,
421,,1.0,space,,,0.0,0.0-4.0-1.10,32,1266,generalization,sound/600,2.0,230102.0,133.0,audio-keyboard-response,negative,-100,10.0,600.0,81.0,80.0,
422,,1.0,space,,,0.0,0.0-4.0-1.11,32,844,generalization,sound/800,2.0,232460.0,136.0,audio-keyboard-response,negative,100,11.0,800.0,81.0,80.0,
423,,0.0,space,,,0.0,0.0-4.0-1.12,81,1450,generalization,sound/500,2.0,235416.0,139.0,audio-keyboard-response,control,,12.0,,81.0,80.0,
424,,0.0,space,,,0.0,0.0-4.0-1.13,81,938,generalization,sound/305,2.0,237869.0,142.0,audio-keyboard-response,positive,5,13.0,305.0,81.0,80.0,
425,,1.0,space,,,0.0,0.0-4.0-1.14,32,818,generalization,sound/320,2.0,240201.0,145.0,audio-keyboard-response,positive,20,14.0,320.0,81.0,80.0,
426,,1.0,q,,,0.0,0.0-4.0-1.15,81,757,generalization,sound/300,2.0,242467.0,148.0,audio-keyboard-response,positive,0,15.0,,81.0,80.0,
427,,1.0,space,,,0.0,0.0-4.0-1.16,32,808,generalization,sound/920,2.0,244786.0,151.0,audio-keyboard-response,control,,16.0,,81.0,80.0,
428,,0.0,space,,,0.0,0.0-4.0-1.17,80,751,generalization,sound/640,2.0,247045.0,154.0,audio-keyboard-response,negative,-60,17.0,640.0,81.0,80.0,
429,,0.0,space,,,0.0,0.0-4.0-1.18,81,1013,generalization,sound/295,2.0,249566.0,157.0,audio-keyboard-response,positive,-5,18.0,295.0,81.0,80.0,
430,,1.0,space,,,0.0,0.0-4.0-1.19,32,808,generalization,sound/760,2.0,251883.0,160.0,audio-keyboard-response,negative,60,19.0,760.0,81.0,80.0,
431,,0.0,p,,,0.0,0.0-4.0-1.20,32,810,generalization,sound/700,2.0,254203.0,163.0,audio-keyboard-response,negative,0,20.0,,81.0,80.0,
432,,1.0,space,,,0.0,0.0-4.0-1.21,32,765,generalization,sound/360,2.0,256477.0,166.0,audio-keyboard-response,positive,60,21.0,360.0,81.0,80.0,
433,,1.0,space,,,0.0,0.0-4.0-1.22,32,812,generalization,sound/680,2.0,258800.0,169.0,audio-keyboard-response,negative,-20,22.0,680.0,81.0,80.0,
434,,1.0,space,,,0.0,0.0-4.0-1.23,32,901,generalization,sound/720,2.0,261219.0,172.0,audio-keyboard-response,negative,20,23.0,720.0,81.0,80.0,
435,,1.0,q,,,0.0,0.0-4.0-1.24,81,534,generalization,sound/300,2.0,263259.0,175.0,audio-keyboard-response,positive,0,24.0,,81.0,80.0,
436,,1.0,space,,,0.0,0.0-4.0-1.25,32,1016,generalization,sound/240,2.0,265786.0,178.0,audio-keyboard-response,positive,-60,25.0,240.0,81.0,80.0,
437,,0.0,p,,,0.0,0.0-4.0-1.26,32,1028,generalization,sound/700,2.0,268319.0,181.0,audio-keyboard-response,negative,0,26.0,,81.0,80.0,
438,,1.0,space,,,0.0,0.0-4.0-1.27,32,916,generalization,sound/280,2.0,270745.0,184.0,audio-keyboard-response,positive,-20,27.0,280.0,81.0,80.0,
439,,0.0,space,,,0.0,0.0-4.0-1.28,80,1137,generalization,sound/705,2.0,273391.0,187.0,audio-keyboard-response,negative,5,28.0,705.0,81.0,80.0,
440,,0.0,space,,,0.0,0.0-4.0-1.29,80,695,generalization,sound/695,2.0,275595.0,190.0,audio-keyboard-response,negative,-5,29.0,695.0,81.0,80.0,
441,instrumental,1.0,p,700,27.0,1.0,0.0-7.0-1.0,80,1141,acquisition,sound/700,2.0,314058.0,195.0,audio-keyboard-response,negative,,,,81.0,80.0,
442,pavlovian,0.0,,700,,1.0,0.0-7.0-1.1,,,acquisition,sound/700,2.0,319174.0,198.0,audio-keyboard-response,negative,,,,81.0,80.0,
443,instrumental,1.0,q,300,28.0,1.0,0.0-7.0-1.2,81,638,acquisition,sound/300,2.0,322428.0,201.0,audio-keyboard-response,positive,,,,81.0,80.0,
444,instrumental,1.0,q,300,29.0,1.0,0.0-7.0-1.3,81,583,acquisition,sound/300,2.0,325624.0,204.0,audio-keyboard-response,positive,,,,81.0,80.0,
445,instrumental,1.0,,500,30.0,1.0,0.0-7.0-1.4,,,acquisition,sound/500,2.0,330739.0,207.0,audio-keyboard-response,neutral,,,,81.0,80.0,
446,instrumental,1.0,p,700,31.0,1.0,0.0-7.0-1.5,80,616,acquisition,sound/700,2.0,333967.0,210.0,audio-keyboard-response,negative,,,,81.0,80.0,
447,instrumental,1.0,q,300,32.0,1.0,0.0-7.0-1.6,81,462,acquisition,sound/300,2.0,337050.0,213.0,audio-keyboard-response,positive,,,,81.0,80.0,
448,instrumental,1.0,,500,33.0,1.0,0.0-7.0-1.7,,,acquisition,sound/500,2.0,342167.0,216.0,audio-keyboard-response,neutral,,,,81.0,80.0,
449,pavlovian,1.0,,300,,1.0,0.0-7.0-1.8,,,acquisition,sound/300,2.0,347286.0,219.0,audio-keyboard-response,positive,,,,81.0,80.0,
450,instrumental,0.0,,500,34.0,1.0,0.0-7.0-1.9,80,932,acquisition,sound/500,2.0,350841.0,222.0,audio-keyboard-response,neutral,,,,81.0,80.0,
451,instrumental,1.0,p,700,35.0,1.0,0.0-7.0-1.10,80,678,acquisition,sound/700,2.0,354140.0,225.0,audio-keyboard-response,negative,,,,81.0,80.0,
452,instrumental,1.0,,500,36.0,1.0,0.0-7.0-1.11,,,acquisition,sound/500,2.0,359251.0,228.0,audio-keyboard-response,neutral,,,,81.0,80.0,
453,pavlovian,0.0,,700,,1.0,0.0-7.0-1.12,,,acquisition,sound/700,2.0,364363.0,231.0,audio-keyboard-response,negative,,,,81.0,80.0,
454,instrumental,1.0,p,700,37.0,1.0,0.0-7.0-1.13,80,848,acquisition,sound/700,2.0,367833.0,234.0,audio-keyboard-response,negative,,,,81.0,80.0,
455,instrumental,0.0,,500,38.0,1.0,0.0-7.0-1.14,81,634,acquisition,sound/500,2.0,371077.0,237.0,audio-keyboard-response,neutral,,,,81.0,80.0,
456,pavlovian,1.0,,300,,1.0,0.0-7.0-1.15,,,acquisition,sound/300,2.0,376191.0,240.0,audio-keyboard-response,positive,,,,81.0,80.0,
457,instrumental,0.0,,500,39.0,1.0,0.0-7.0-1.16,80,1491,acquisition,sound/500,2.0,380297.0,243.0,audio-keyboard-response,neutral,,,,81.0,80.0,
458,instrumental,1.0,p,700,40.0,1.0,0.0-7.0-1.17,80,598,acquisition,sound/700,2.0,383517.0,246.0,audio-keyboard-response,negative,,,,81.0,80.0,
459,instrumental,1.0,q,300,41.0,1.0,0.0-7.0-1.18,81,685,acquisition,sound/300,2.0,386818.0,249.0,audio-keyboard-response,positive,,,,81.0,80.0,
460,instrumental,1.0,q,300,42.0,1.0,0.0-7.0-1.19,81,457,acquisition,sound/300,2.0,389887.0,252.0,audio-keyboard-response,positive,,,,81.0,80.0,
461,instrumental,1.0,q,300,43.0,1.0,0.0-7.0-1.20,81,502,acquisition,sound/300,2.0,393000.0,255.0,audio-keyboard-response,positive,,,,81.0,80.0,
462,instrumental,1.0,p,700,44.0,1.0,0.0-7.0-1.21,80,723,acquisition,sound/700,2.0,396339.0,258.0,audio-keyboard-response,negative,,,,81.0,80.0,
463,instrumental,0.0,,500,45.0,1.0,0.0-7.0-1.22,81,704,acquisition,sound/500,2.0,399658.0,261.0,audio-keyboard-response,neutral,,,,81.0,80.0,
464,instrumental,1.0,q,300,46.0,1.0,0.0-7.0-1.23,81,447,acquisition,sound/300,2.0,402720.0,264.0,audio-keyboard-response,positive,,,,81.0,80.0,
465,instrumental,1.0,p,700,47.0,1.0,0.0-7.0-1.24,80,496,acquisition,sound/700,2.0,405828.0,267.0,audio-keyboard-response,negative,,,,81.0,80.0,
466,instrumental,1.0,p,700,48.0,1.0,0.0-7.0-1.25,80,438,acquisition,sound/700,2.0,408882.0,270.0,audio-keyboard-response,negative,,,,81.0,80.0,
467,instrumental,0.0,,500,49.0,1.0,0.0-7.0-1.26,81,509,acquisition,sound/500,2.0,412006.0,273.0,audio-keyboard-response,neutral,,,,81.0,80.0,
468,instrumental,1.0,q,300,50.0,1.0,0.0-7.0-1.27,81,506,acquisition,sound/300,2.0,415132.0,276.0,audio-keyboard-response,positive,,,,81.0,80.0,
469,pavlovian,1.0,,300,,1.0,0.0-7.0-1.28,,,acquisition,sound/300,2.0,420250.0,279.0,audio-keyboard-response,positive,,,,81.0,80.0,
470,instrumental,1.0,,500,51.0,1.0,0.0-7.0-1.29,,,acquisition,sound/500,2.0,425369.0,282.0,audio-keyboard-response,neutral,,,,81.0,80.0,
471,instrumental,1.0,q,300,52.0,1.0,0.0-7.0-1.30,81,463,acquisition,sound/300,2.0,428451.0,285.0,audio-keyboard-response,positive,,,,81.0,80.0,
472,instrumental,1.0,p,700,53.0,1.0,0.0-7.0-1.31,80,695,acquisition,sound/700,2.0,431758.0,288.0,audio-keyboard-response,negative,,,,81.0,80.0,
473,pavlovian,0.0,,700,,1.0,0.0-7.0-1.32,80,769,acquisition,sound/700,2.0,436874.0,291.0,audio-keyboard-response,negative,,,,81.0,80.0,
474,,1.0,space,,,1.0,0.0-10.0-1.0,32,794,generalization,sound/320,2.0,449182.0,296.0,audio-keyboard-response,positive,20,30.0,320.0,81.0,80.0,
475,,0.0,space,,,1.0,0.0-10.0-1.1,81,748,generalization,sound/200,2.0,451444.0,299.0,audio-keyboard-response,positive,-100,31.0,200.0,81.0,80.0,
476,,0.0,space,,,1.0,0.0-10.0-1.2,80,1195,generalization,sound/480,2.0,454151.0,302.0,audio-keyboard-response,control,,32.0,,81.0,80.0,
477,,1.0,space,,,1.0,0.0-10.0-1.3,32,871,generalization,sound/720,2.0,456530.0,305.0,audio-keyboard-response,negative,20,33.0,720.0,81.0,80.0,
478,,1.0,space,,,1.0,0.0-10.0-1.4,32,766,generalization,sound/695,2.0,458804.0,308.0,audio-keyboard-response,negative,-5,34.0,695.0,81.0,80.0,
479,,0.0,space,,,1.0,0.0-10.0-1.5,81,1361,generalization,sound/500,2.0,461675.0,311.0,audio-keyboard-response,control,,35.0,,81.0,80.0,
480,,1.0,space,,,1.0,0.0-10.0-1.6,32,779,generalization,sound/600,2.0,463968.0,314.0,audio-keyboard-response,negative,-100,36.0,600.0,81.0,80.0,
481,,0.0,space,,,1.0,0.0-10.0-1.7,81,532,generalization,sound/295,2.0,466011.0,317.0,audio-keyboard-response,positive,-5,37.0,295.0,81.0,80.0,
482,,1.0,p,,,1.0,0.0-10.0-1.8,80,952,generalization,sound/700,2.0,468473.0,320.0,audio-keyboard-response,negative,0,38.0,,81.0,80.0,
483,,1.0,space,,,1.0,0.0-10.0-1.9,32,678,generalization,sound/360,2.0,470666.0,323.0,audio-keyboard-response,positive,60,39.0,360.0,81.0,80.0,
484,,0.0,space,,,1.0,0.0-10.0-1.10,81,461,generalization,sound/240,2.0,472639.0,326.0,audio-keyboard-response,positive,-60,40.0,240.0,81.0,80.0,
485,,1.0,space,,,1.0,0.0-10.0-1.11,32,710,generalization,sound/920,2.0,474855.0,329.0,audio-keyboard-response,control,,41.0,,81.0,80.0,
486,,1.0,space,,,1.0,0.0-10.0-1.12,32,466,generalization,sound/880,2.0,476832.0,332.0,audio-keyboard-response,control,,42.0,,81.0,80.0,
487,,1.0,space,,,1.0,0.0-10.0-1.13,32,871,generalization,sound/640,2.0,479214.0,335.0,audio-keyboard-response,negative,-60,43.0,640.0,81.0,80.0,
488,,1.0,q,,,1.0,0.0-10.0-1.14,81,703,generalization,sound/300,2.0,481428.0,338.0,audio-keyboard-response,positive,0,44.0,,81.0,80.0,
489,,1.0,space,,,1.0,0.0-10.0-1.15,32,729,generalization,sound/800,2.0,483664.0,341.0,audio-keyboard-response,negative,100,45.0,800.0,81.0,80.0,
490,,1.0,space,,,1.0,0.0-10.0-1.16,32,458,generalization,sound/680,2.0,485634.0,344.0,audio-keyboard-response,negative,-20,46.0,680.0,81.0,80.0,
491,,1.0,space,,,1.0,0.0-10.0-1.17,32,657,generalization,sound/400,2.0,487800.0,347.0,audio-keyboard-response,positive,100,47.0,400.0,81.0,80.0,
492,,1.0,q,,,1.0,0.0-10.0-1.18,81,624,generalization,sound/300,2.0,489934.0,350.0,audio-keyboard-response,positive,0,48.0,,81.0,80.0,
493,,1.0,q,,,1.0,0.0-10.0-1.19,81,506,generalization,sound/300,2.0,491947.0,353.0,audio-keyboard-response,positive,0,49.0,,81.0,80.0,
494,,0.0,p,,,1.0,0.0-10.0-1.20,32,948,generalization,sound/700,2.0,494407.0,356.0,audio-keyboard-response,negative,0,50.0,,81.0,80.0,
495,,1.0,space,,,1.0,0.0-10.0-1.21,32,790,generalization,sound/280,2.0,496707.0,359.0,audio-keyboard-response,positive,-20,51.0,280.0,81.0,80.0,
496,,1.0,space,,,1.0,0.0-10.0-1.22,32,699,generalization,sound/305,2.0,498914.0,362.0,audio-keyboard-response,positive,5,52.0,305.0,81.0,80.0,
497,,0.0,space,,,1.0,0.0-10.0-1.23,80,1369,generalization,sound/520,2.0,501790.0,365.0,audio-keyboard-response,control,,53.0,,81.0,80.0,
498,,1.0,p,,,1.0,0.0-10.0-1.24,80,779,generalization,sound/700,2.0,504078.0,368.0,audio-keyboard-response,negative,0,54.0,,81.0,80.0,
499,,1.0,space,,,1.0,0.0-10.0-1.25,32,765,generalization,sound/760,2.0,506355.0,371.0,audio-keyboard-response,negative,60,55.0,760.0,81.0,80.0,
500,,0.0,p,,,1.0,0.0-10.0-1.26,32,653,generalization,sound/700,2.0,508515.0,374.0,audio-keyboard-response,negative,0,56.0,,81.0,80.0,
501,,1.0,q,,,1.0,0.0-10.0-1.27,81,488,generalization,sound/300,2.0,510515.0,377.0,audio-keyboard-response,positive,0,57.0,,81.0,80.0,
502,,1.0,space,,,1.0,0.0-10.0-1.28,32,1056,generalization,sound/705,2.0,513080.0,380.0,audio-keyboard-response,negative,5,58.0,705.0,81.0,80.0,
503,,1.0,space,,,1.0,0.0-10.0-1.29,32,735,generalization,sound/900,2.0,515329.0,383.0,audio-keyboard-response,control,,59.0,,81.0,80.0,
504,instrumental,1.0,p,700,54.0,2.0,0.0-13.0-1.0,80,782,acquisition,sound/700,2.0,524157.0,388.0,audio-keyboard-response,negative,,,,81.0,80.0,
505,instrumental,1.0,,500,55.0,2.0,0.0-13.0-1.1,,,acquisition,sound/500,2.0,529271.0,391.0,audio-keyboard-response,neutral,,,,81.0,80.0,
506,instrumental,1.0,p,700,56.0,2.0,0.0-13.0-1.2,80,740,acquisition,sound/700,2.0,532626.0,394.0,audio-keyboard-response,negative,,,,81.0,80.0,
507,instrumental,1.0,q,300,57.0,2.0,0.0-13.0-1.3,81,618,acquisition,sound/300,2.0,535856.0,397.0,audio-keyboard-response,positive,,,,81.0,80.0,
508,instrumental,1.0,,500,58.0,2.0,0.0-13.0-1.4,,,acquisition,sound/500,2.0,540968.0,400.0,audio-keyboard-response,neutral,,,,81.0,80.0,
509,pavlovian,1.0,,300,,2.0,0.0-13.0-1.5,,,acquisition,sound/300,2.0,546084.0,403.0,audio-keyboard-response,positive,,,,81.0,80.0,
510,instrumental,1.0,q,300,59.0,2.0,0.0-13.0-1.6,81,717,acquisition,sound/300,2.0,549416.0,406.0,audio-keyboard-response,positive,,,,81.0,80.0,
511,instrumental,1.0,p,700,60.0,2.0,0.0-13.0-1.7,80,806,acquisition,sound/700,2.0,552833.0,409.0,audio-keyboard-response,negative,,,,81.0,80.0,
512,instrumental,1.0,,500,61.0,2.0,0.0-13.0-1.8,,,acquisition,sound/500,2.0,557954.0,412.0,audio-keyboard-response,neutral,,,,81.0,80.0,
513,pavlovian,0.0,,700,,2.0,0.0-13.0-1.9,,,acquisition,sound/700,2.0,563071.0,415.0,audio-keyboard-response,negative,,,,81.0,80.0,
514,instrumental,1.0,q,300,62.0,2.0,0.0-13.0-1.10,81,387,acquisition,sound/300,2.0,566071.0,418.0,audio-keyboard-response,positive,,,,81.0,80.0,
515,pavlovian,0.0,,700,,2.0,0.0-13.0-1.11,80,784,acquisition,sound/700,2.0,571194.0,421.0,audio-keyboard-response,negative,,,,81.0,80.0,
516,pavlovian,1.0,,300,,2.0,0.0-13.0-1.12,81,615,acquisition,sound/300,2.0,576316.0,424.0,audio-keyboard-response,positive,,,,81.0,80.0,
517,instrumental,1.0,,500,63.0,2.0,0.0-13.0-1.13,,,acquisition,sound/500,2.0,581431.0,427.0,audio-keyboard-response,neutral,,,,81.0,80.0,
518,instrumental,1.0,p,700,64.0,2.0,0.0-13.0-1.14,80,580,acquisition,sound/700,2.0,584625.0,430.0,audio-keyboard-response,negative,,,,81.0,80.0,
519,instrumental,1.0,q,300,65.0,2.0,0.0-13.0-1.15,81,1016,acquisition,sound/300,2.0,588255.0,433.0,audio-keyboard-response,positive,,,,81.0,80.0,
520,instrumental,1.0,p,700,66.0,2.0,0.0-13.0-1.16,80,750,acquisition,sound/700,2.0,591620.0,436.0,audio-keyboard-response,negative,,,,81.0,80.0,
521,instrumental,1.0,q,300,67.0,2.0,0.0-13.0-1.17,81,487,acquisition,sound/300,2.0,594726.0,439.0,audio-keyboard-response,positive,,,,81.0,80.0,
522,instrumental,1.0,p,700,68.0,2.0,0.0-13.0-1.18,80,640,acquisition,sound/700,2.0,597982.0,442.0,audio-keyboard-response,negative,,,,81.0,80.0,
523,instrumental,1.0,q,300,69.0,2.0,0.0-13.0-1.19,81,400,acquisition,sound/300,2.0,601005.0,445.0,audio-keyboard-response,positive,,,,81.0,80.0,
524,instrumental,1.0,,500,70.0,2.0,0.0-13.0-1.20,,,acquisition,sound/500,2.0,606122.0,448.0,audio-keyboard-response,neutral,,,,81.0,80.0,
525,instrumental,1.0,,500,71.0,2.0,0.0-13.0-1.21,,,acquisition,sound/500,2.0,611235.0,451.0,audio-keyboard-response,neutral,,,,81.0,80.0,
526,instrumental,1.0,,500,72.0,2.0,0.0-13.0-1.22,,,acquisition,sound/500,2.0,616348.0,454.0,audio-keyboard-response,neutral,,,,81.0,80.0,
527,instrumental,1.0,p,700,73.0,2.0,0.0-13.0-1.23,80,776,acquisition,sound/700,2.0,619740.0,457.0,audio-keyboard-response,negative,,,,81.0,80.0,
528,instrumental,0.0,,500,74.0,2.0,0.0-13.0-1.24,80,724,acquisition,sound/500,2.0,623081.0,460.0,audio-keyboard-response,neutral,,,,81.0,80.0,
529,instrumental,1.0,q,300,75.0,2.0,0.0-13.0-1.25,81,407,acquisition,sound/300,2.0,626102.0,463.0,audio-keyboard-response,positive,,,,81.0,80.0,
530,instrumental,1.0,p,700,76.0,2.0,0.0-13.0-1.26,80,514,acquisition,sound/700,2.0,629231.0,466.0,audio-keyboard-response,negative,,,,81.0,80.0,
531,pavlovian,0.0,,700,,2.0,0.0-13.0-1.27,,,acquisition,sound/700,2.0,634355.0,469.0,audio-keyboard-response,negative,,,,81.0,80.0,
532,instrumental,1.0,q,300,77.0,2.0,0.0-13.0-1.28,81,372,acquisition,sound/300,2.0,637340.0,472.0,audio-keyboard-response,positive,,,,81.0,80.0,
533,instrumental,1.0,q,300,78.0,2.0,0.0-13.0-1.29,81,529,acquisition,sound/300,2.0,640481.0,475.0,audio-keyboard-response,positive,,,,81.0,80.0,
534,instrumental,1.0,p,700,79.0,2.0,0.0-13.0-1.30,80,531,acquisition,sound/700,2.0,643632.0,478.0,audio-keyboard-response,negative,,,,81.0,80.0,
535,pavlovian,1.0,,300,,2.0,0.0-13.0-1.31,80,1595,acquisition,sound/300,2.0,648753.0,481.0,audio-keyboard-response,positive,,,,81.0,80.0,
536,instrumental,1.0,,500,80.0,2.0,0.0-13.0-1.32,,,acquisition,sound/500,2.0,653872.0,484.0,audio-keyboard-response,neutral,,,,81.0,80.0,
537,,1.0,p,,,2.0,0.0-16.0-1.0,80,577,generalization,sound/700,2.0,662787.0,489.0,audio-keyboard-response,negative,0,60.0,,81.0,80.0,
538,,1.0,space,,,2.0,0.0-16.0-1.1,32,768,generalization,sound/360,2.0,665065.0,492.0,audio-keyboard-response,positive,60,61.0,360.0,81.0,80.0,
539,,1.0,space,,,2.0,0.0-16.0-1.2,32,748,generalization,sound/920,2.0,667325.0,495.0,audio-keyboard-response,control,,62.0,,81.0,80.0,
540,,0.0,space,,,2.0,0.0-16.0-1.3,81,480,generalization,sound/305,2.0,669315.0,498.0,audio-keyboard-response,positive,5,63.0,305.0,81.0,80.0,
541,,1.0,space,,,2.0,0.0-16.0-1.4,32,661,generalization,sound/600,2.0,671491.0,501.0,audio-keyboard-response,negative,-100,64.0,600.0,81.0,80.0,
542,,1.0,space,,,2.0,0.0-16.0-1.5,32,640,generalization,sound/480,2.0,673636.0,504.0,audio-keyboard-response,control,,65.0,,81.0,80.0,
543,,1.0,space,,,2.0,0.0-16.0-1.6,32,587,generalization,sound/900,2.0,675732.0,507.0,audio-keyboard-response,control,,66.0,,81.0,80.0,
544,,1.0,space,,,2.0,0.0-16.0-1.7,32,521,generalization,sound/760,2.0,677761.0,510.0,audio-keyboard-response,negative,60,67.0,760.0,81.0,80.0,
545,,1.0,q,,,2.0,0.0-16.0-1.8,81,593,generalization,sound/300,2.0,679864.0,513.0,audio-keyboard-response,positive,0,68.0,,81.0,80.0,
546,,0.0,space,,,2.0,0.0-16.0-1.9,80,745,generalization,sound/500,2.0,682115.0,516.0,audio-keyboard-response,control,,69.0,,81.0,80.0,
547,,1.0,space,,,2.0,0.0-16.0-1.10,32,733,generalization,sound/640,2.0,684357.0,519.0,audio-keyboard-response,negative,-60,70.0,640.0,81.0,80.0,
548,,1.0,space,,,2.0,0.0-16.0-1.11,32,546,generalization,sound/705,2.0,686410.0,522.0,audio-keyboard-response,negative,5,71.0,705.0,81.0,80.0,
549,,0.0,space,,,2.0,0.0-16.0-1.12,80,824,generalization,sound/520,2.0,688743.0,525.0,audio-keyboard-response,control,,72.0,,81.0,80.0,
550,,1.0,space,,,2.0,0.0-16.0-1.13,32,670,generalization,sound/880,2.0,690919.0,528.0,audio-keyboard-response,control,,73.0,,81.0,80.0,
551,,1.0,space,,,2.0,0.0-16.0-1.14,32,794,generalization,sound/680,2.0,693223.0,531.0,audio-keyboard-response,negative,-20,74.0,680.0,81.0,80.0,
552,,0.0,p,,,2.0,0.0-16.0-1.15,32,686,generalization,sound/700,2.0,695417.0,534.0,audio-keyboard-response,negative,0,75.0,,81.0,80.0,
553,,1.0,p,,,2.0,0.0-16.0-1.16,80,711,generalization,sound/700,2.0,697636.0,537.0,audio-keyboard-response,negative,0,76.0,,81.0,80.0,
554,,0.0,space,,,2.0,0.0-16.0-1.17,81,563,generalization,sound/295,2.0,699712.0,540.0,audio-keyboard-response,positive,-5,77.0,295.0,81.0,80.0,
555,,1.0,space,,,2.0,0.0-16.0-1.18,32,637,generalization,sound/720,2.0,701855.0,543.0,audio-keyboard-response,negative,20,78.0,720.0,81.0,80.0,
556,,1.0,space,,,2.0,0.0-16.0-1.19,32,1087,generalization,sound/400,2.0,704450.0,546.0,audio-keyboard-response,positive,100,79.0,400.0,81.0,80.0,
557,,0.0,space,,,2.0,0.0-16.0-1.20,81,624,generalization,sound/200,2.0,706584.0,549.0,audio-keyboard-response,positive,-100,80.0,200.0,81.0,80.0,
558,,1.0,q,,,2.0,0.0-16.0-1.21,81,762,generalization,sound/300,2.0,708852.0,552.0,audio-keyboard-response,positive,0,81.0,,81.0,80.0,
559,,1.0,p,,,2.0,0.0-16.0-1.22,80,754,generalization,sound/700,2.0,711117.0,555.0,audio-keyboard-response,negative,0,82.0,,81.0,80.0,
560,,1.0,space,,,2.0,0.0-16.0-1.23,32,650,generalization,sound/320,2.0,713277.0,558.0,audio-keyboard-response,positive,20,83.0,320.0,81.0,80.0,
561,,0.0,q,,,2.0,0.0-16.0-1.24,32,1318,generalization,sound/300,2.0,716104.0,561.0,audio-keyboard-response,positive,0,84.0,,81.0,80.0,
562,,0.0,space,,,2.0,0.0-16.0-1.25,80,741,generalization,sound/695,2.0,718355.0,564.0,audio-keyboard-response,negative,-5,85.0,695.0,81.0,80.0,
563,,1.0,space,,,2.0,0.0-16.0-1.26,32,701,generalization,sound/800,2.0,720565.0,567.0,audio-keyboard-response,negative,100,86.0,800.0,81.0,80.0,
564,,0.0,space,,,2.0,0.0-16.0-1.27,81,682,generalization,sound/240,2.0,722759.0,570.0,audio-keyboard-response,positive,-60,87.0,240.0,81.0,80.0,
565,,0.0,q,,,2.0,0.0-16.0-1.28,32,659,generalization,sound/300,2.0,724930.0,573.0,audio-keyboard-response,positive,0,88.0,,81.0,80.0,
566,,1.0,space,,,2.0,0.0-16.0-1.29,32,610,generalization,sound/280,2.0,727046.0,576.0,audio-keyboard-response,positive,-20,89.0,280.0,81.0,80.0,
567,instrumental,0.0,,500,0.0,0.0,0.0-1.0-1.0,81,2244,acquisition,sound/500,3.0,152060.0,2.0,audio-keyboard-response,neutral,,,,80.0,81.0,
568,pavlovian,0.0,,300,,0.0,0.0-1.0-1.1,80,1319,acquisition,sound/300,3.0,157178.0,5.0,audio-keyboard-response,negative,,,,80.0,81.0,
569,instrumental,0.0,q,300,1.0,0.0,0.0-1.0-1.2,80,1165,acquisition,sound/300,3.0,160962.0,8.0,audio-keyboard-response,negative,,,,80.0,81.0,
570,instrumental,1.0,p,700,2.0,0.0,0.0-1.0-1.3,80,786,acquisition,sound/700,3.0,164363.0,11.0,audio-keyboard-response,positive,,,,80.0,81.0,
571,pavlovian,1.0,,700,,0.0,0.0-1.0-1.4,80,1145,acquisition,sound/700,3.0,169476.0,14.0,audio-keyboard-response,positive,,,,80.0,81.0,
572,instrumental,1.0,q,300,3.0,0.0,0.0-1.0-1.5,81,655,acquisition,sound/300,3.0,172749.0,17.0,audio-keyboard-response,negative,,,,80.0,81.0,
573,instrumental,1.0,p,700,4.0,0.0,0.0-1.0-1.6,80,616,acquisition,sound/700,3.0,175986.0,20.0,audio-keyboard-response,positive,,,,80.0,81.0,
574,instrumental,1.0,p,700,5.0,0.0,0.0-1.0-1.7,80,515,acquisition,sound/700,3.0,179109.0,23.0,audio-keyboard-response,positive,,,,80.0,81.0,
575,instrumental,1.0,q,300,6.0,0.0,0.0-1.0-1.8,81,421,acquisition,sound/300,3.0,182147.0,26.0,audio-keyboard-response,negative,,,,80.0,81.0,
576,instrumental,0.0,,500,7.0,0.0,0.0-1.0-1.9,81,896,acquisition,sound/500,3.0,185656.0,29.0,audio-keyboard-response,neutral,,,,80.0,81.0,
577,instrumental,1.0,,500,8.0,0.0,0.0-1.0-1.10,,,acquisition,sound/500,3.0,190776.0,32.0,audio-keyboard-response,neutral,,,,80.0,81.0,
578,instrumental,1.0,q,300,9.0,0.0,0.0-1.0-1.11,81,667,acquisition,sound/300,3.0,194055.0,35.0,audio-keyboard-response,negative,,,,80.0,81.0,
579,instrumental,1.0,,500,10.0,0.0,0.0-1.0-1.12,,,acquisition,sound/500,3.0,199171.0,38.0,audio-keyboard-response,neutral,,,,80.0,81.0,
580,instrumental,1.0,q,300,11.0,0.0,0.0-1.0-1.13,81,1102,acquisition,sound/300,3.0,202881.0,41.0,audio-keyboard-response,negative,,,,80.0,81.0,
581,pavlovian,0.0,,300,,0.0,0.0-1.0-1.14,,,acquisition,sound/300,3.0,207995.0,44.0,audio-keyboard-response,negative,,,,80.0,81.0,
582,instrumental,1.0,,500,12.0,0.0,0.0-1.0-1.15,,,acquisition,sound/500,3.0,213113.0,47.0,audio-keyboard-response,neutral,,,,80.0,81.0,
583,instrumental,1.0,q,300,13.0,0.0,0.0-1.0-1.16,81,944,acquisition,sound/300,3.0,216671.0,50.0,audio-keyboard-response,negative,,,,80.0,81.0,
584,instrumental,1.0,,500,14.0,0.0,0.0-1.0-1.17,,,acquisition,sound/500,3.0,221795.0,53.0,audio-keyboard-response,neutral,,,,80.0,81.0,
585,instrumental,1.0,p,700,15.0,0.0,0.0-1.0-1.18,80,381,acquisition,sound/700,3.0,224792.0,56.0,audio-keyboard-response,positive,,,,80.0,81.0,
586,pavlovian,1.0,,700,,0.0,0.0-1.0-1.19,,,acquisition,sound/700,3.0,229905.0,59.0,audio-keyboard-response,positive,,,,80.0,81.0,
587,instrumental,1.0,p,700,16.0,0.0,0.0-1.0-1.20,80,1018,acquisition,sound/700,3.0,233538.0,62.0,audio-keyboard-response,positive,,,,80.0,81.0,
588,instrumental,1.0,p,700,17.0,0.0,0.0-1.0-1.21,80,294,acquisition,sound/700,3.0,236448.0,65.0,audio-keyboard-response,positive,,,,80.0,81.0,
589,instrumental,0.0,,500,18.0,0.0,0.0-1.0-1.22,80,1072,acquisition,sound/500,3.0,240133.0,68.0,audio-keyboard-response,neutral,,,,80.0,81.0,
590,instrumental,1.0,,500,19.0,0.0,0.0-1.0-1.23,,,acquisition,sound/500,3.0,245250.0,71.0,audio-keyboard-response,neutral,,,,80.0,81.0,
591,instrumental,1.0,p,700,20.0,0.0,0.0-1.0-1.24,80,667,acquisition,sound/700,3.0,248528.0,74.0,audio-keyboard-response,positive,,,,80.0,81.0,
592,instrumental,1.0,,500,21.0,0.0,0.0-1.0-1.25,,,acquisition,sound/500,3.0,253643.0,77.0,audio-keyboard-response,neutral,,,,80.0,81.0,
593,instrumental,1.0,q,300,22.0,0.0,0.0-1.0-1.26,81,435,acquisition,sound/300,3.0,256695.0,80.0,audio-keyboard-response,negative,,,,80.0,81.0,
594,instrumental,1.0,p,700,23.0,0.0,0.0-1.0-1.27,80,518,acquisition,sound/700,3.0,259829.0,83.0,audio-keyboard-response,positive,,,,80.0,81.0,
595,pavlovian,1.0,,700,,0.0,0.0-1.0-1.28,80,565,acquisition,sound/700,3.0,264946.0,86.0,audio-keyboard-response,positive,,,,80.0,81.0,
596,instrumental,1.0,q,300,24.0,0.0,0.0-1.0-1.29,81,583,acquisition,sound/300,3.0,268141.0,89.0,audio-keyboard-response,negative,,,,80.0,81.0,
597,instrumental,1.0,q,300,25.0,0.0,0.0-1.0-1.30,81,511,acquisition,sound/300,3.0,271264.0,92.0,audio-keyboard-response,negative,,,,80.0,81.0,
598,pavlovian,0.0,,300,,0.0,0.0-1.0-1.31,,,acquisition,sound/300,3.0,276386.0,95.0,audio-keyboard-response,negative,,,,80.0,81.0,
599,instrumental,1.0,p,700,26.0,0.0,0.0-1.0-1.32,80,424,acquisition,sound/700,3.0,279421.0,98.0,audio-keyboard-response,positive,,,,80.0,81.0,
600,,1.0,p,,,0.0,0.0-4.0-1.0,80,2203,generalization,sound/700,3.0,347576.0,103.0,audio-keyboard-response,positive,0,0.0,,80.0,81.0,
601,,1.0,space,,,0.0,0.0-4.0-1.1,32,1022,generalization,sound/520,3.0,350106.0,106.0,audio-keyboard-response,control,,1.0,,80.0,81.0,
602,,0.0,space,,,0.0,0.0-4.0-1.2,80,1218,generalization,sound/880,3.0,352833.0,109.0,audio-keyboard-response,control,,2.0,,80.0,81.0,
603,,1.0,space,,,0.0,0.0-4.0-1.3,32,1005,generalization,sound/800,3.0,355348.0,112.0,audio-keyboard-response,positive,100,3.0,800.0,80.0,81.0,
604,,1.0,q,,,0.0,0.0-4.0-1.4,81,715,generalization,sound/300,3.0,357581.0,115.0,audio-keyboard-response,negative,0,4.0,,80.0,81.0,
605,,0.0,space,,,0.0,0.0-4.0-1.5,81,534,generalization,sound/305,3.0,359620.0,118.0,audio-keyboard-response,negative,5,5.0,305.0,80.0,81.0,
606,,1.0,space,,,0.0,0.0-4.0-1.6,32,962,generalization,sound/280,3.0,362092.0,121.0,audio-keyboard-response,negative,-20,6.0,280.0,80.0,81.0,
607,,0.0,space,,,0.0,0.0-4.0-1.7,80,535,generalization,sound/900,3.0,364132.0,124.0,audio-keyboard-response,control,,7.0,,80.0,81.0,
608,,0.0,space,,,0.0,0.0-4.0-1.8,81,1413,generalization,sound/360,3.0,367053.0,127.0,audio-keyboard-response,negative,60,8.0,360.0,80.0,81.0,
609,,1.0,space,,,0.0,0.0-4.0-1.9,32,900,generalization,sound/400,3.0,369463.0,130.0,audio-keyboard-response,negative,100,9.0,400.0,80.0,81.0,
610,,0.0,space,,,0.0,0.0-4.0-1.10,80,676,generalization,sound/705,3.0,371647.0,133.0,audio-keyboard-response,positive,5,10.0,705.0,80.0,81.0,
611,,1.0,p,,,0.0,0.0-4.0-1.11,80,482,generalization,sound/700,3.0,373640.0,136.0,audio-keyboard-response,positive,0,11.0,,80.0,81.0,
612,,1.0,space,,,0.0,0.0-4.0-1.12,32,734,generalization,sound/760,3.0,375881.0,139.0,audio-keyboard-response,positive,60,12.0,760.0,80.0,81.0,
613,,1.0,space,,,0.0,0.0-4.0-1.13,32,815,generalization,sound/480,3.0,378202.0,142.0,audio-keyboard-response,control,,13.0,,80.0,81.0,
614,,0.0,space,,,0.0,0.0-4.0-1.14,80,1303,generalization,sound/695,3.0,381013.0,145.0,audio-keyboard-response,positive,-5,14.0,695.0,80.0,81.0,
615,,0.0,space,,,0.0,0.0-4.0-1.15,81,1122,generalization,sound/240,3.0,383646.0,148.0,audio-keyboard-response,negative,-60,15.0,240.0,80.0,81.0,
616,,1.0,space,,,0.0,0.0-4.0-1.16,32,805,generalization,sound/680,3.0,385960.0,151.0,audio-keyboard-response,positive,-20,16.0,680.0,80.0,81.0,
617,,1.0,space,,,0.0,0.0-4.0-1.17,32,894,generalization,sound/200,3.0,388364.0,154.0,audio-keyboard-response,negative,-100,17.0,200.0,80.0,81.0,
618,,1.0,space,,,0.0,0.0-4.0-1.18,32,1042,generalization,sound/600,3.0,390913.0,157.0,audio-keyboard-response,positive,-100,18.0,600.0,80.0,81.0,
619,,0.0,space,,,0.0,0.0-4.0-1.19,81,1378,generalization,sound/320,3.0,393804.0,160.0,audio-keyboard-response,negative,20,19.0,320.0,80.0,81.0,
620,,1.0,q,,,0.0,0.0-4.0-1.20,81,1001,generalization,sound/300,3.0,396319.0,163.0,audio-keyboard-response,negative,0,20.0,,80.0,81.0,
621,,1.0,space,,,0.0,0.0-4.0-1.21,32,1132,generalization,sound/720,3.0,398958.0,166.0,audio-keyboard-response,positive,20,21.0,720.0,80.0,81.0,
622,,1.0,space,,,0.0,0.0-4.0-1.22,32,838,generalization,sound/500,3.0,401301.0,169.0,audio-keyboard-response,control,,22.0,,80.0,81.0,
623,,0.0,p,,,0.0,0.0-4.0-1.23,32,770,generalization,sound/700,3.0,403576.0,172.0,audio-keyboard-response,positive,0,23.0,,80.0,81.0,
624,,1.0,space,,,0.0,0.0-4.0-1.24,32,658,generalization,sound/640,3.0,405742.0,175.0,audio-keyboard-response,positive,-60,24.0,640.0,80.0,81.0,
625,,0.0,p,,,0.0,0.0-4.0-1.25,32,644,generalization,sound/700,3.0,407894.0,178.0,audio-keyboard-response,positive,0,25.0,,80.0,81.0,
626,,1.0,space,,,0.0,0.0-4.0-1.26,32,1127,generalization,sound/920,3.0,410529.0,181.0,audio-keyboard-response,control,,26.0,,80.0,81.0,
627,,1.0,q,,,0.0,0.0-4.0-1.27,81,909,generalization,sound/300,3.0,412949.0,184.0,audio-keyboard-response,negative,0,27.0,,80.0,81.0,
628,,0.0,space,,,0.0,0.0-4.0-1.28,81,607,generalization,sound/295,3.0,415064.0,187.0,audio-keyboard-response,negative,-5,28.0,295.0,80.0,81.0,
629,,1.0,q,,,0.0,0.0-4.0-1.29,81,481,generalization,sound/300,3.0,417057.0,190.0,audio-keyboard-response,negative,0,29.0,,80.0,81.0,
630,instrumental,1.0,,500,27.0,1.0,0.0-7.0-1.0,,,acquisition,sound/500,3.0,437060.0,195.0,audio-keyboard-response,neutral,,,,80.0,81.0,
631,pavlovian,1.0,,700,,1.0,0.0-7.0-1.1,,,acquisition,sound/700,3.0,442178.0,198.0,audio-keyboard-response,positive,,,,80.0,81.0,
632,pavlovian,0.0,,300,,1.0,0.0-7.0-1.2,,,acquisition,sound/300,3.0,447293.0,201.0,audio-keyboard-response,negative,,,,80.0,81.0,
633,instrumental,1.0,,500,28.0,1.0,0.0-7.0-1.3,,,acquisition,sound/500,3.0,452405.0,204.0,audio-keyboard-response,neutral,,,,80.0,81.0,
634,instrumental,1.0,q,300,29.0,1.0,0.0-7.0-1.4,81,791,acquisition,sound/300,3.0,455812.0,207.0,audio-keyboard-response,negative,,,,80.0,81.0,
635,instrumental,1.0,q,300,30.0,1.0,0.0-7.0-1.5,81,640,acquisition,sound/300,3.0,459063.0,210.0,audio-keyboard-response,negative,,,,80.0,81.0,
636,instrumental,1.0,p,700,31.0,1.0,0.0-7.0-1.6,80,612,acquisition,sound/700,3.0,462288.0,213.0,audio-keyboard-response,positive,,,,80.0,81.0,
637,instrumental,1.0,,500,32.0,1.0,0.0-7.0-1.7,,,acquisition,sound/500,3.0,467407.0,216.0,audio-keyboard-response,neutral,,,,80.0,81.0,
638,instrumental,1.0,q,300,33.0,1.0,0.0-7.0-1.8,81,542,acquisition,sound/300,3.0,470561.0,219.0,audio-keyboard-response,negative,,,,80.0,81.0,
639,instrumental,1.0,p,700,34.0,1.0,0.0-7.0-1.9,80,433,acquisition,sound/700,3.0,473610.0,222.0,audio-keyboard-response,positive,,,,80.0,81.0,
640,instrumental,1.0,p,700,35.0,1.0,0.0-7.0-1.10,80,449,acquisition,sound/700,3.0,476673.0,225.0,audio-keyboard-response,positive,,,,80.0,81.0,
641,instrumental,1.0,p,700,36.0,1.0,0.0-7.0-1.11,80,307,acquisition,sound/700,3.0,479600.0,228.0,audio-keyboard-response,positive,,,,80.0,81.0,
642,pavlovian,0.0,,300,,1.0,0.0-7.0-1.12,,,acquisition,sound/300,3.0,484715.0,231.0,audio-keyboard-response,negative,,,,80.0,81.0,
643,instrumental,1.0,p,700,37.0,1.0,0.0-7.0-1.13,80,446,acquisition,sound/700,3.0,487774.0,234.0,audio-keyboard-response,positive,,,,80.0,81.0,
644,instrumental,1.0,,500,38.0,1.0,0.0-7.0-1.14,,,acquisition,sound/500,3.0,492893.0,237.0,audio-keyboard-response,neutral,,,,80.0,81.0,
645,pavlovian,1.0,,700,,1.0,0.0-7.0-1.15,,,acquisition,sound/700,3.0,498005.0,240.0,audio-keyboard-response,positive,,,,80.0,81.0,
646,instrumental,1.0,p,700,39.0,1.0,0.0-7.0-1.16,80,367,acquisition,sound/700,3.0,500993.0,243.0,audio-keyboard-response,positive,,,,80.0,81.0,
647,instrumental,1.0,q,300,40.0,1.0,0.0-7.0-1.17,81,521,acquisition,sound/300,3.0,504129.0,246.0,audio-keyboard-response,negative,,,,80.0,81.0,
648,instrumental,1.0,q,300,41.0,1.0,0.0-7.0-1.18,81,516,acquisition,sound/300,3.0,507259.0,249.0,audio-keyboard-response,negative,,,,80.0,81.0,
649,instrumental,1.0,,500,42.0,1.0,0.0-7.0-1.19,,,acquisition,sound/500,3.0,512374.0,252.0,audio-keyboard-response,neutral,,,,80.0,81.0,
650,instrumental,1.0,q,300,43.0,1.0,0.0-7.0-1.20,81,592,acquisition,sound/300,3.0,515574.0,255.0,audio-keyboard-response,negative,,,,80.0,81.0,
651,instrumental,1.0,,500,44.0,1.0,0.0-7.0-1.21,,,acquisition,sound/500,3.0,520688.0,258.0,audio-keyboard-response,neutral,,,,80.0,81.0,
652,pavlovian,1.0,,700,,1.0,0.0-7.0-1.22,,,acquisition,sound/700,3.0,525813.0,261.0,audio-keyboard-response,positive,,,,80.0,81.0,
653,instrumental,1.0,q,300,45.0,1.0,0.0-7.0-1.23,81,647,acquisition,sound/300,3.0,529070.0,264.0,audio-keyboard-response,negative,,,,80.0,81.0,
654,instrumental,1.0,p,700,46.0,1.0,0.0-7.0-1.24,80,479,acquisition,sound/700,3.0,532158.0,267.0,audio-keyboard-response,positive,,,,80.0,81.0,
655,instrumental,1.0,p,700,47.0,1.0,0.0-7.0-1.25,80,426,acquisition,sound/700,3.0,535197.0,270.0,audio-keyboard-response,positive,,,,80.0,81.0,
656,pavlovian,0.0,,300,,1.0,0.0-7.0-1.26,81,1087,acquisition,sound/300,3.0,540308.0,273.0,audio-keyboard-response,negative,,,,80.0,81.0,
657,instrumental,1.0,q,300,48.0,1.0,0.0-7.0-1.27,81,508,acquisition,sound/300,3.0,543429.0,276.0,audio-keyboard-response,negative,,,,80.0,81.0,
658,instrumental,1.0,,500,49.0,1.0,0.0-7.0-1.28,,,acquisition,sound/500,3.0,548545.0,279.0,audio-keyboard-response,neutral,,,,80.0,81.0,
659,instrumental,1.0,,500,50.0,1.0,0.0-7.0-1.29,,,acquisition,sound/500,3.0,553662.0,282.0,audio-keyboard-response,neutral,,,,80.0,81.0,
660,instrumental,1.0,q,300,51.0,1.0,0.0-7.0-1.30,81,601,acquisition,sound/300,3.0,556879.0,285.0,audio-keyboard-response,negative,,,,80.0,81.0,
661,instrumental,1.0,,500,52.0,1.0,0.0-7.0-1.31,,,acquisition,sound/500,3.0,561992.0,288.0,audio-keyboard-response,neutral,,,,80.0,81.0,
662,instrumental,1.0,p,700,53.0,1.0,0.0-7.0-1.32,80,499,acquisition,sound/700,3.0,565106.0,291.0,audio-keyboard-response,positive,,,,80.0,81.0,
663,,1.0,p,,,1.0,0.0-10.0-1.0,80,2296,generalization,sound/700,3.0,592416.0,296.0,audio-keyboard-response,positive,0,30.0,,80.0,81.0,
664,,1.0,space,,,1.0,0.0-10.0-1.1,32,1171,generalization,sound/600,3.0,595097.0,299.0,audio-keyboard-response,positive,-100,31.0,600.0,80.0,81.0,
665,,1.0,space,,,1.0,0.0-10.0-1.2,32,775,generalization,sound/720,3.0,597379.0,302.0,audio-keyboard-response,positive,20,32.0,720.0,80.0,81.0,
666,,0.0,p,,,1.0,0.0-10.0-1.3,32,549,generalization,sound/700,3.0,599439.0,305.0,audio-keyboard-response,positive,0,33.0,,80.0,81.0,
667,,0.0,space,,,1.0,0.0-10.0-1.4,81,637,generalization,sound/295,3.0,601586.0,308.0,audio-keyboard-response,negative,-5,34.0,295.0,80.0,81.0,
668,,1.0,space,,,1.0,0.0-10.0-1.5,32,682,generalization,sound/320,3.0,603777.0,311.0,audio-keyboard-response,negative,20,35.0,320.0,80.0,81.0,
669,,1.0,space,,,1.0,0.0-10.0-1.6,32,727,generalization,sound/760,3.0,606015.0,314.0,audio-keyboard-response,positive,60,36.0,760.0,80.0,81.0,
670,,1.0,q,,,1.0,0.0-10.0-1.7,81,664,generalization,sound/300,3.0,608189.0,317.0,audio-keyboard-response,negative,0,37.0,,80.0,81.0,
671,,1.0,q,,,1.0,0.0-10.0-1.8,81,406,generalization,sound/300,3.0,610104.0,320.0,audio-keyboard-response,negative,0,38.0,,80.0,81.0,
672,,0.0,space,,,1.0,0.0-10.0-1.9,80,1244,generalization,sound/880,3.0,612858.0,323.0,audio-keyboard-response,control,,39.0,,80.0,81.0,
673,,1.0,p,,,1.0,0.0-10.0-1.10,80,672,generalization,sound/700,3.0,615040.0,326.0,audio-keyboard-response,positive,0,40.0,,80.0,81.0,
674,,1.0,space,,,1.0,0.0-10.0-1.11,32,1057,generalization,sound/240,3.0,617605.0,329.0,audio-keyboard-response,negative,-60,41.0,240.0,80.0,81.0,
675,,1.0,space,,,1.0,0.0-10.0-1.12,32,719,generalization,sound/680,3.0,619831.0,332.0,audio-keyboard-response,positive,-20,42.0,680.0,80.0,81.0,
676,,0.0,space,,,1.0,0.0-10.0-1.13,80,642,generalization,sound/900,3.0,621984.0,335.0,audio-keyboard-response,control,,43.0,,80.0,81.0,
677,,1.0,p,,,1.0,0.0-10.0-1.14,80,1249,generalization,sound/700,3.0,624735.0,338.0,audio-keyboard-response,positive,0,44.0,,80.0,81.0,
678,,1.0,space,,,1.0,0.0-10.0-1.15,32,660,generalization,sound/500,3.0,626903.0,341.0,audio-keyboard-response,control,,45.0,,80.0,81.0,
679,,1.0,space,,,1.0,0.0-10.0-1.16,32,678,generalization,sound/360,3.0,629087.0,344.0,audio-keyboard-response,negative,60,46.0,360.0,80.0,81.0,
680,,1.0,q,,,1.0,0.0-10.0-1.17,81,719,generalization,sound/300,3.0,631321.0,347.0,audio-keyboard-response,negative,0,47.0,,80.0,81.0,
681,,1.0,space,,,1.0,0.0-10.0-1.18,32,627,generalization,sound/800,3.0,633457.0,350.0,audio-keyboard-response,positive,100,48.0,800.0,80.0,81.0,
682,,1.0,space,,,1.0,0.0-10.0-1.19,32,593,generalization,sound/640,3.0,635560.0,353.0,audio-keyboard-response,positive,-60,49.0,640.0,80.0,81.0,
683,,1.0,q,,,1.0,0.0-10.0-1.20,81,714,generalization,sound/300,3.0,637788.0,356.0,audio-keyboard-response,negative,0,50.0,,80.0,81.0,
684,,1.0,space,,,1.0,0.0-10.0-1.21,32,730,generalization,sound/200,3.0,640024.0,359.0,audio-keyboard-response,negative,-100,51.0,200.0,80.0,81.0,
685,,0.0,space,,,1.0,0.0-10.0-1.22,81,1057,generalization,sound/305,3.0,642596.0,362.0,audio-keyboard-response,negative,5,52.0,305.0,80.0,81.0,
686,,1.0,space,,,1.0,0.0-10.0-1.23,32,976,generalization,sound/480,3.0,645077.0,365.0,audio-keyboard-response,control,,53.0,,80.0,81.0,
687,,1.0,space,,,1.0,0.0-10.0-1.24,32,728,generalization,sound/520,3.0,647319.0,368.0,audio-keyboard-response,control,,54.0,,80.0,81.0,
688,,0.0,space,,,1.0,0.0-10.0-1.25,80,531,generalization,sound/695,3.0,649356.0,371.0,audio-keyboard-response,positive,-5,55.0,695.0,80.0,81.0,
689,,1.0,space,,,1.0,0.0-10.0-1.26,32,1090,generalization,sound/280,3.0,651954.0,374.0,audio-keyboard-response,negative,-20,56.0,280.0,80.0,81.0,
690,,1.0,space,,,1.0,0.0-10.0-1.27,32,842,generalization,sound/400,3.0,654307.0,377.0,audio-keyboard-response,negative,100,57.0,400.0,80.0,81.0,
691,,1.0,space,,,1.0,0.0-10.0-1.28,32,754,generalization,sound/920,3.0,656571.0,380.0,audio-keyboard-response,control,,58.0,,80.0,81.0,
692,,0.0,space,,,1.0,0.0-10.0-1.29,80,648,generalization,sound/705,3.0,658728.0,383.0,audio-keyboard-response,positive,5,59.0,705.0,80.0,81.0,
693,instrumental,1.0,q,300,54.0,2.0,0.0-13.0-1.0,81,924,acquisition,sound/300,3.0,675342.0,388.0,audio-keyboard-response,negative,,,,80.0,81.0,
694,instrumental,1.0,,500,55.0,2.0,0.0-13.0-1.1,,,acquisition,sound/500,3.0,680459.0,391.0,audio-keyboard-response,neutral,,,,80.0,81.0,
695,pavlovian,1.0,,700,,2.0,0.0-13.0-1.2,,,acquisition,sound/700,3.0,685574.0,394.0,audio-keyboard-response,positive,,,,80.0,81.0,
696,instrumental,1.0,p,700,56.0,2.0,0.0-13.0-1.3,80,621,acquisition,sound/700,3.0,688811.0,397.0,audio-keyboard-response,positive,,,,80.0,81.0,
697,instrumental,1.0,,500,57.0,2.0,0.0-13.0-1.4,,,acquisition,sound/500,3.0,693928.0,400.0,audio-keyboard-response,neutral,,,,80.0,81.0,
698,instrumental,1.0,q,300,58.0,2.0,0.0-13.0-1.5,81,522,acquisition,sound/300,3.0,697060.0,403.0,audio-keyboard-response,negative,,,,80.0,81.0,
699,instrumental,1.0,,500,59.0,2.0,0.0-13.0-1.6,,,acquisition,sound/500,3.0,702188.0,406.0,audio-keyboard-response,neutral,,,,80.0,81.0,
700,instrumental,1.0,q,300,60.0,2.0,0.0-13.0-1.7,81,472,acquisition,sound/300,3.0,705270.0,409.0,audio-keyboard-response,negative,,,,80.0,81.0,
701,pavlovian,0.0,,300,,2.0,0.0-13.0-1.8,,,acquisition,sound/300,3.0,710387.0,412.0,audio-keyboard-response,negative,,,,80.0,81.0,
702,instrumental,1.0,p,700,61.0,2.0,0.0-13.0-1.9,80,728,acquisition,sound/700,3.0,713728.0,415.0,audio-keyboard-response,positive,,,,80.0,81.0,
703,instrumental,1.0,p,700,62.0,2.0,0.0-13.0-1.10,80,388,acquisition,sound/700,3.0,716724.0,418.0,audio-keyboard-response,positive,,,,80.0,81.0,
704,instrumental,1.0,q,300,63.0,2.0,0.0-13.0-1.11,81,812,acquisition,sound/300,3.0,720149.0,421.0,audio-keyboard-response,negative,,,,80.0,81.0,
705,instrumental,1.0,p,700,64.0,2.0,0.0-13.0-1.12,80,364,acquisition,sound/700,3.0,723127.0,424.0,audio-keyboard-response,positive,,,,80.0,81.0,
706,instrumental,1.0,,500,65.0,2.0,0.0-13.0-1.13,,,acquisition,sound/500,3.0,728241.0,427.0,audio-keyboard-response,neutral,,,,80.0,81.0,
707,instrumental,1.0,p,700,66.0,2.0,0.0-13.0-1.14,80,421,acquisition,sound/700,3.0,731275.0,430.0,audio-keyboard-response,positive,,,,80.0,81.0,
708,pavlovian,0.0,,300,,2.0,0.0-13.0-1.15,,,acquisition,sound/300,3.0,736391.0,433.0,audio-keyboard-response,negative,,,,80.0,81.0,
709,instrumental,1.0,p,700,67.0,2.0,0.0-13.0-1.16,80,487,acquisition,sound/700,3.0,739494.0,436.0,audio-keyboard-response,positive,,,,80.0,81.0,
710,instrumental,1.0,q,300,68.0,2.0,0.0-13.0-1.17,81,709,acquisition,sound/300,3.0,742819.0,439.0,audio-keyboard-response,negative,,,,80.0,81.0,
711,pavlovian,1.0,,700,,2.0,0.0-13.0-1.18,,,acquisition,sound/700,3.0,747936.0,442.0,audio-keyboard-response,positive,,,,80.0,81.0,
712,instrumental,1.0,,500,69.0,2.0,0.0-13.0-1.19,,,acquisition,sound/500,3.0,753053.0,445.0,audio-keyboard-response,neutral,,,,80.0,81.0,
